#
# Results on Tue, 26 Oct 2021 23:53:04 GMT
# USER AGENT: Mozilla/5.0 (Macintosh; Intel Mac OS X 10_15_7) AppleWebKit/537.36 (KHTML, like Gecko) Chrome/94.0.4606.61 Safari/537.36
# Design number was non-random = 1
#
# Columns below this comment are as follows:
# 1. Results reception time.
# 2. MD5 hash of participant's IP address.
# 3. Controller name.
# 4. Order number of item.
# 5. Inner element number.
# 6. Label.
# 7. Latin Square Group.
# 8. PennElementType.
# 9. PennElementName.
# 10. Parameter.
# 11. Value.
# 12. EventTime.
# 13. ID.
# 14. Comments.
1635292384,35b1cd3fa69612a78713073ae48ab5f5,2,0,intro,NULL,PennController,0,_Trial_,Start,1635291985691,9687,NULL
1635292384,35b1cd3fa69612a78713073ae48ab5f5,2,0,intro,NULL,PennController,0,_Trial_,End,1635291989609,9687,NULL
# 13. Comments.
1635292384,35b1cd3fa69612a78713073ae48ab5f5,3,0,beginning,NULL,PennController,1,_Trial_,Start,1635291989617,NULL
1635292384,35b1cd3fa69612a78713073ae48ab5f5,3,0,beginning,NULL,PennController,1,_Trial_,End,1635292064473,NULL
# 13. group.
# 14. number.
# 15. target.
# 16. item.
# 17. Comments.
1635292384,35b1cd3fa69612a78713073ae48ab5f5,4,0,experiment,NULL,PennController,4,_Trial_,Start,1635292064476,B,one,label2,animal,NULL
1635292384,35b1cd3fa69612a78713073ae48ab5f5,4,0,experiment,NULL,SelectionGrid,test-phase,Selections,contrast-corgi-1.jpg;contrast-corgi-2.jpg|contrast-corgi-1.jpg;true;1976:contrast-corgi-2.jpg;true;2503,1635292064481,B,one,label2,animal,NULL
1635292384,35b1cd3fa69612a78713073ae48ab5f5,4,0,experiment,NULL,PennController,4,_Trial_,End,1635292088345,B,one,label2,animal,NULL
1635292384,35b1cd3fa69612a78713073ae48ab5f5,5,0,experiment,NULL,PennController,5,_Trial_,Start,1635292088346,B,three,label1,beast,NULL
1635292384,35b1cd3fa69612a78713073ae48ab5f5,5,0,experiment,NULL,SelectionGrid,test-phase,Selections,sub-trex-1.jpg;sub-trex-2.jpg;basic-dinosaur-2.jpg;basic-dinosaur-3.jpg|sub-trex-1.jpg;true;4543:sub-trex-2.jpg;true;5296:basic-dinosaur-2.jpg;true;6931:basic-dinosaur-3.jpg;true;7660,1635292088349,B,three,label1,beast,NULL
1635292384,35b1cd3fa69612a78713073ae48ab5f5,5,0,experiment,NULL,PennController,5,_Trial_,End,1635292117805,B,three,label1,beast,NULL
1635292384,35b1cd3fa69612a78713073ae48ab5f5,6,0,experiment,NULL,PennController,6,_Trial_,Start,1635292117808,B,one,label2,electronics,NULL
1635292384,35b1cd3fa69612a78713073ae48ab5f5,6,0,experiment,NULL,SelectionGrid,test-phase,Selections,contrast-flip_phone-1.jpg;sub-smart_phone-2.jpg;contrast-flip_phone-2.jpg;sub-smart_phone-1.jpg|contrast-flip_phone-1.jpg;true;2805:sub-smart_phone-2.jpg;true;3184:contrast-flip_phone-2.jpg;true;4424:sub-smart_phone-1.jpg;true;5849,1635292117815,B,one,label2,electronics,NULL
1635292384,35b1cd3fa69612a78713073ae48ab5f5,6,0,experiment,NULL,PennController,6,_Trial_,End,1635292144478,B,one,label2,electronics,NULL
1635292384,35b1cd3fa69612a78713073ae48ab5f5,7,0,experiment,NULL,PennController,7,_Trial_,Start,1635292144481,B,one,label1,Filler-Color-red,NULL
1635292384,35b1cd3fa69612a78713073ae48ab5f5,7,0,experiment,NULL,SelectionGrid,test-phase,Selections,red-rect.jpg|red-rect.jpg;true;2640:red-rect.jpg;true;3135:red-rect.jpg;true;3678:red-rect.jpg;true;4245:red-rect.jpg;true;4829:red-rect.jpg;true;5371,1635292144486,B,one,label1,Filler-Color-red,NULL
1635292384,35b1cd3fa69612a78713073ae48ab5f5,7,0,experiment,NULL,PennController,7,_Trial_,End,1635292162719,B,one,label1,Filler-Color-red,NULL
1635292384,35b1cd3fa69612a78713073ae48ab5f5,8,0,experiment,NULL,PennController,8,_Trial_,Start,1635292162720,B,three,label1,fruit,NULL
1635292384,35b1cd3fa69612a78713073ae48ab5f5,8,0,experiment,NULL,SelectionGrid,test-phase,Selections,sub-red_apple-1.jpg;sub-red_apple-2.jpg|sub-red_apple-1.jpg;true;1356:sub-red_apple-2.jpg;true;2591,1635292162725,B,three,label1,fruit,NULL
1635292384,35b1cd3fa69612a78713073ae48ab5f5,8,0,experiment,NULL,PennController,8,_Trial_,End,1635292185461,B,three,label1,fruit,NULL
1635292384,35b1cd3fa69612a78713073ae48ab5f5,9,0,experiment,NULL,PennController,9,_Trial_,Start,1635292185463,B,one,label2,furniture,NULL
1635292384,35b1cd3fa69612a78713073ae48ab5f5,9,0,experiment,NULL,SelectionGrid,test-phase,Selections,sub-wooden_chair-2.jpg;sub-wooden_chair-1.jpg|sub-wooden_chair-2.jpg;true;3538:sub-wooden_chair-1.jpg;true;6350,1635292185470,B,one,label2,furniture,NULL
1635292384,35b1cd3fa69612a78713073ae48ab5f5,9,0,experiment,NULL,PennController,9,_Trial_,End,1635292212140,B,one,label2,furniture,NULL
1635292384,35b1cd3fa69612a78713073ae48ab5f5,10,0,experiment,NULL,PennController,10,_Trial_,Start,1635292212143,B,three,label1,light,NULL
1635292384,35b1cd3fa69612a78713073ae48ab5f5,10,0,experiment,NULL,SelectionGrid,test-phase,Selections,basic-lamp-1.jpg;sub-gooseneck_lamp-1.jpg;sub-gooseneck_lamp-2.jpg;basic-lamp-2.jpg|basic-lamp-1.jpg;true;2333:sub-gooseneck_lamp-1.jpg;true;3573:sub-gooseneck_lamp-2.jpg;true;4357:basic-lamp-2.jpg;true;5395,1635292212148,B,three,label1,light,NULL
1635292384,35b1cd3fa69612a78713073ae48ab5f5,10,0,experiment,NULL,PennController,10,_Trial_,End,1635292237435,B,three,label1,light,NULL
1635292384,35b1cd3fa69612a78713073ae48ab5f5,11,0,experiment,NULL,PennController,11,_Trial_,Start,1635292237437,B,one,label1,Filler-Shape-triangle,NULL
1635292384,35b1cd3fa69612a78713073ae48ab5f5,11,0,experiment,NULL,SelectionGrid,test-phase,Selections,triangle-5.jpg;triangle-3.jpg;triangle-2.jpg;triangle-4.jpg;triangle-1.jpg|triangle-5.jpg;true;1305:triangle-3.jpg;true;1741:triangle-2.jpg;true;2130:triangle-4.jpg;true;2729:triangle-1.jpg;true;3143,1635292237444,B,one,label1,Filler-Shape-triangle,NULL
1635292384,35b1cd3fa69612a78713073ae48ab5f5,11,0,experiment,NULL,PennController,11,_Trial_,End,1635292253558,B,one,label1,Filler-Shape-triangle,NULL
1635292384,35b1cd3fa69612a78713073ae48ab5f5,12,0,experiment,NULL,PennController,12,_Trial_,Start,1635292253560,B,one,label2,vegetable,NULL
1635292384,35b1cd3fa69612a78713073ae48ab5f5,12,0,experiment,NULL,SelectionGrid,test-phase,Selections,contrast-red_pepper-1.jpg;contrast-red_pepper-2.jpg;sub-green_pepper-1.jpg;basic-pepper-3.jpg;basic-pepper-2.jpg|contrast-red_pepper-1.jpg;true;3756:contrast-red_pepper-2.jpg;true;4485:sub-green_pepper-1.jpg;true;5959:basic-pepper-3.jpg;true;6962:basic-pepper-2.jpg;true;7740,1635292253569,B,one,label2,vegetable,NULL
1635292384,35b1cd3fa69612a78713073ae48ab5f5,12,0,experiment,NULL,PennController,12,_Trial_,End,1635292283571,B,one,label2,vegetable,NULL
1635292384,35b1cd3fa69612a78713073ae48ab5f5,13,0,experiment,NULL,PennController,13,_Trial_,Start,1635292283574,B,three,label1,vehicle,NULL
1635292384,35b1cd3fa69612a78713073ae48ab5f5,13,0,experiment,NULL,SelectionGrid,test-phase,Selections,contrast-van-2.jpg;contrast-van-1.jpg;basic-car-2.jpg|contrast-van-2.jpg;true;77179:contrast-van-1.jpg;true;77503:basic-car-2.jpg;true;78888,1635292283581,B,three,label1,vehicle,NULL
1635292384,35b1cd3fa69612a78713073ae48ab5f5,13,0,experiment,NULL,PennController,13,_Trial_,End,1635292382572,B,three,label1,vehicle,NULL
# 13. window_size.
# 14. Comments.
1635292384,35b1cd3fa69612a78713073ae48ab5f5,14,0,end,NULL,PennController,2,_Trial_,Start,1635292382575,1191x745,NULL
1635292384,35b1cd3fa69612a78713073ae48ab5f5,14,0,end,NULL,PennController,2,_Trial_,End,1635292384303,1191x745,NULL
#
# Results on Wed, 27 Oct 2021 00:03:52 GMT
# USER AGENT: Mozilla/5.0 (Macintosh; Intel Mac OS X 10_15_7) AppleWebKit/537.36 (KHTML, like Gecko) Chrome/94.0.4606.81 Safari/537.36
# Design number was non-random = 2
#
# Columns below this comment are as follows:
# 1. Results reception time.
# 2. MD5 hash of participant's IP address.
# 3. Controller name.
# 4. Order number of item.
# 5. Inner element number.
# 6. Label.
# 7. Latin Square Group.
# 8. PennElementType.
# 9. PennElementName.
# 10. Parameter.
# 11. Value.
# 12. EventTime.
# 13. ID.
# 14. Comments.
1635293032,501d43e975b2625c319f97a5ea83432b,2,0,intro,NULL,PennController,0,_Trial_,Start,1635292747480,9652,NULL
1635293032,501d43e975b2625c319f97a5ea83432b,2,0,intro,NULL,PennController,0,_Trial_,End,1635292752648,9652,NULL
# 13. Comments.
1635293032,501d43e975b2625c319f97a5ea83432b,3,0,beginning,NULL,PennController,1,_Trial_,Start,1635292752653,NULL
1635293032,501d43e975b2625c319f97a5ea83432b,3,0,beginning,NULL,PennController,1,_Trial_,End,1635292777817,NULL
# 13. group.
# 14. number.
# 15. target.
# 16. item.
# 17. Comments.
1635293032,501d43e975b2625c319f97a5ea83432b,4,0,experiment,NULL,PennController,4,_Trial_,Start,1635292777819,C,three,label1,animal,NULL
1635293032,501d43e975b2625c319f97a5ea83432b,4,0,experiment,NULL,SelectionGrid,test-phase,Selections,sub-dalmatian-1.jpg;sub-dalmatian-2.jpg|sup-animal-1.jpg;true;5644:sup-animal-1.jpg;false;6581:sup-animal-1.jpg;true;10253:sup-animal-1.jpg;false;11044:sub-dalmatian-1.jpg;true;17295:sub-dalmatian-2.jpg;true;17706,1635292777824,C,three,label1,animal,NULL
1635293032,501d43e975b2625c319f97a5ea83432b,4,0,experiment,NULL,PennController,4,_Trial_,End,1635292815252,C,three,label1,animal,NULL
1635293032,501d43e975b2625c319f97a5ea83432b,5,0,experiment,NULL,PennController,5,_Trial_,Start,1635292815254,C,one,label2,beast,NULL
1635293032,501d43e975b2625c319f97a5ea83432b,5,0,experiment,NULL,SelectionGrid,test-phase,Selections,contrast-triceratops-1.jpg;contrast-triceratops-2.jpg|contrast-triceratops-1.jpg;true;2341:contrast-triceratops-2.jpg;true;4977,1635292815258,C,one,label2,beast,NULL
1635293032,501d43e975b2625c319f97a5ea83432b,5,0,experiment,NULL,PennController,5,_Trial_,End,1635292843943,C,one,label2,beast,NULL
1635293032,501d43e975b2625c319f97a5ea83432b,6,0,experiment,NULL,PennController,6,_Trial_,Start,1635292843946,C,three,label1,electronics,NULL
1635293032,501d43e975b2625c319f97a5ea83432b,6,0,experiment,NULL,SelectionGrid,test-phase,Selections,sub-smart_phone-1.jpg|sub-smart_phone-1.jpg;true;3161,1635292843952,C,three,label1,electronics,NULL
1635293032,501d43e975b2625c319f97a5ea83432b,6,0,experiment,NULL,PennController,6,_Trial_,End,1635292868929,C,three,label1,electronics,NULL
1635293032,501d43e975b2625c319f97a5ea83432b,7,0,experiment,NULL,PennController,7,_Trial_,Start,1635292868932,C,one,label1,Filler-Color-red,NULL
1635293032,501d43e975b2625c319f97a5ea83432b,7,0,experiment,NULL,SelectionGrid,test-phase,Selections,red-rect.jpg|red-rect.jpg;true;1110:red-rect.jpg;true;1425:red-rect.jpg;true;1886:red-rect.jpg;true;2654:red-rect.jpg;true;3252:red-rect.jpg;true;3584,1635292868936,C,one,label1,Filler-Color-red,NULL
1635293032,501d43e975b2625c319f97a5ea83432b,7,0,experiment,NULL,PennController,7,_Trial_,End,1635292885121,C,one,label1,Filler-Color-red,NULL
1635293032,501d43e975b2625c319f97a5ea83432b,8,0,experiment,NULL,PennController,8,_Trial_,Start,1635292885123,C,one,label2,fruit,NULL
1635293032,501d43e975b2625c319f97a5ea83432b,8,0,experiment,NULL,SelectionGrid,test-phase,Selections,contrast-green_apple-1.jpg;contrast-green_apple-2.jpg;basic-apple-1.jpg;basic-apple-2.jpg|contrast-green_apple-1.jpg;true;1725:contrast-green_apple-2.jpg;true;2146:basic-apple-1.jpg;true;3310:basic-apple-2.jpg;true;8606,1635292885128,C,one,label2,fruit,NULL
1635293032,501d43e975b2625c319f97a5ea83432b,8,0,experiment,NULL,PennController,8,_Trial_,End,1635292914648,C,one,label2,fruit,NULL
1635293032,501d43e975b2625c319f97a5ea83432b,9,0,experiment,NULL,PennController,9,_Trial_,Start,1635292914651,C,three,label1,furniture,NULL
1635293032,501d43e975b2625c319f97a5ea83432b,9,0,experiment,NULL,SelectionGrid,test-phase,Selections,sub-wooden_chair-1.jpg;sub-wooden_chair-2.jpg|sub-wooden_chair-1.jpg;true;2172:sub-wooden_chair-2.jpg;true;2705,1635292914657,C,three,label1,furniture,NULL
1635293032,501d43e975b2625c319f97a5ea83432b,9,0,experiment,NULL,PennController,9,_Trial_,End,1635292940059,C,three,label1,furniture,NULL
1635293032,501d43e975b2625c319f97a5ea83432b,10,0,experiment,NULL,PennController,10,_Trial_,Start,1635292940063,C,one,label2,light,NULL
1635293032,501d43e975b2625c319f97a5ea83432b,10,0,experiment,NULL,SelectionGrid,test-phase,Selections,contrast-desk_lamp-1.jpg;contrast-desk_lamp-2.jpg|sub-gooseneck_lamp-2.jpg;true;3250:sub-gooseneck_lamp-2.jpg;false;4269:contrast-desk_lamp-1.jpg;true;4640:contrast-desk_lamp-2.jpg;true;5101,1635292940066,C,one,label2,light,NULL
1635293032,501d43e975b2625c319f97a5ea83432b,10,0,experiment,NULL,PennController,10,_Trial_,End,1635292968533,C,one,label2,light,NULL
1635293032,501d43e975b2625c319f97a5ea83432b,11,0,experiment,NULL,PennController,11,_Trial_,Start,1635292968535,C,one,label1,Filler-Shape-triangle,NULL
1635293032,501d43e975b2625c319f97a5ea83432b,11,0,experiment,NULL,SelectionGrid,test-phase,Selections,triangle-5.jpg;triangle-3.jpg;triangle-2.jpg;triangle-4.jpg;triangle-1.jpg|triangle-5.jpg;true;1166:triangle-3.jpg;true;1554:triangle-2.jpg;true;2006:triangle-4.jpg;true;2363:triangle-1.jpg;true;2710,1635292968540,C,one,label1,Filler-Shape-triangle,NULL
1635293032,501d43e975b2625c319f97a5ea83432b,11,0,experiment,NULL,PennController,11,_Trial_,End,1635292983855,C,one,label1,Filler-Shape-triangle,NULL
1635293032,501d43e975b2625c319f97a5ea83432b,12,0,experiment,NULL,PennController,12,_Trial_,Start,1635292983858,C,three,label1,vegetable,NULL
1635293032,501d43e975b2625c319f97a5ea83432b,12,0,experiment,NULL,SelectionGrid,test-phase,Selections,sub-green_pepper-2.jpg;sub-green_pepper-1.jpg|sub-green_pepper-2.jpg;true;1162:sub-green_pepper-1.jpg;true;1825,1635292983863,C,three,label1,vegetable,NULL
1635293032,501d43e975b2625c319f97a5ea83432b,12,0,experiment,NULL,PennController,12,_Trial_,End,1635293006860,C,three,label1,vegetable,NULL
1635293032,501d43e975b2625c319f97a5ea83432b,13,0,experiment,NULL,PennController,13,_Trial_,Start,1635293006862,C,one,label2,vehicle,NULL
1635293032,501d43e975b2625c319f97a5ea83432b,13,0,experiment,NULL,SelectionGrid,test-phase,Selections,contrast-van-1.jpg;contrast-van-2.jpg|contrast-van-1.jpg;true;1669:contrast-van-2.jpg;true;2760,1635293006868,C,one,label2,vehicle,NULL
1635293032,501d43e975b2625c319f97a5ea83432b,13,0,experiment,NULL,PennController,13,_Trial_,End,1635293031252,C,one,label2,vehicle,NULL
# 13. window_size.
# 14. Comments.
1635293032,501d43e975b2625c319f97a5ea83432b,14,0,end,NULL,PennController,2,_Trial_,Start,1635293031255,1440x789,NULL
1635293032,501d43e975b2625c319f97a5ea83432b,14,0,end,NULL,PennController,2,_Trial_,End,1635293032541,1440x789,NULL
#
# Results on Wed, 27 Oct 2021 00:11:57 GMT
# USER AGENT: Mozilla/5.0 (Macintosh; Intel Mac OS X 10_15_7) AppleWebKit/537.36 (KHTML, like Gecko) Chrome/94.0.4606.81 Safari/537.36
# Design number was non-random = 3
#
# Columns below this comment are as follows:
# 1. Results reception time.
# 2. MD5 hash of participant's IP address.
# 3. Controller name.
# 4. Order number of item.
# 5. Inner element number.
# 6. Label.
# 7. Latin Square Group.
# 8. PennElementType.
# 9. PennElementName.
# 10. Parameter.
# 11. Value.
# 12. EventTime.
# 13. ID.
# 14. Comments.
1635293517,32ba17f103f1bd62e52fae34c440b830,2,0,intro,NULL,PennController,0,_Trial_,Start,1635293214836,9458,NULL
1635293517,32ba17f103f1bd62e52fae34c440b830,2,0,intro,NULL,PennController,0,_Trial_,End,1635293218487,9458,NULL
# 13. Comments.
1635293517,32ba17f103f1bd62e52fae34c440b830,3,0,beginning,NULL,PennController,1,_Trial_,Start,1635293218494,NULL
1635293517,32ba17f103f1bd62e52fae34c440b830,3,0,beginning,NULL,PennController,1,_Trial_,End,1635293228749,NULL
# 13. group.
# 14. number.
# 15. target.
# 16. item.
# 17. Comments.
1635293517,32ba17f103f1bd62e52fae34c440b830,4,0,experiment,NULL,PennController,4,_Trial_,Start,1635293228751,D,three,label2,animal,NULL
1635293517,32ba17f103f1bd62e52fae34c440b830,4,0,experiment,NULL,SelectionGrid,test-phase,Selections,contrast-corgi-2.jpg;contrast-corgi-1.jpg|contrast-corgi-2.jpg;true;4396:contrast-corgi-1.jpg;true;5761,1635293228757,D,three,label2,animal,NULL
1635293517,32ba17f103f1bd62e52fae34c440b830,4,0,experiment,NULL,PennController,4,_Trial_,End,1635293256150,D,three,label2,animal,NULL
1635293517,32ba17f103f1bd62e52fae34c440b830,5,0,experiment,NULL,PennController,5,_Trial_,Start,1635293256151,D,one,label1,beast,NULL
1635293517,32ba17f103f1bd62e52fae34c440b830,5,0,experiment,NULL,SelectionGrid,test-phase,Selections,sub-trex-1.jpg;sub-trex-2.jpg|sub-trex-1.jpg;true;2992:sub-trex-2.jpg;true;8151,1635293256155,D,one,label1,beast,NULL
1635293517,32ba17f103f1bd62e52fae34c440b830,5,0,experiment,NULL,PennController,5,_Trial_,End,1635293287158,D,one,label1,beast,NULL
1635293517,32ba17f103f1bd62e52fae34c440b830,6,0,experiment,NULL,PennController,6,_Trial_,Start,1635293287161,D,three,label2,electronics,NULL
1635293517,32ba17f103f1bd62e52fae34c440b830,6,0,experiment,NULL,SelectionGrid,test-phase,Selections,contrast-flip_phone-1.jpg;contrast-flip_phone-2.jpg|contrast-flip_phone-1.jpg;true;3251:contrast-flip_phone-2.jpg;true;4079,1635293287167,D,three,label2,electronics,NULL
1635293517,32ba17f103f1bd62e52fae34c440b830,6,0,experiment,NULL,PennController,6,_Trial_,End,1635293314071,D,three,label2,electronics,NULL
1635293517,32ba17f103f1bd62e52fae34c440b830,7,0,experiment,NULL,PennController,7,_Trial_,Start,1635293314074,D,one,label1,Filler-Color-red,NULL
1635293517,32ba17f103f1bd62e52fae34c440b830,7,0,experiment,NULL,SelectionGrid,test-phase,Selections,red-rect.jpg|red-rect.jpg;true;5282:red-rect.jpg;false;8637:red-rect.jpg;true;11002:red-rect.jpg;true;11718:red-rect.jpg;true;12993:red-rect.jpg;true;13630:red-rect.jpg;false;14538:red-rect.jpg;false;15053:red-rect.jpg;true;16377:red-rect.jpg;true;16719:red-rect.jpg;false;17285:red-rect.jpg;false;17858:red-rect.jpg;false;18869:red-rect.jpg;false;20076:red-rect.jpg;true;21335:red-rect.jpg;true;21822:red-rect.jpg;true;22453,1635293314078,D,one,label1,Filler-Color-red,NULL
1635293517,32ba17f103f1bd62e52fae34c440b830,7,0,experiment,NULL,PennController,7,_Trial_,End,1635293349658,D,one,label1,Filler-Color-red,NULL
1635293517,32ba17f103f1bd62e52fae34c440b830,8,0,experiment,NULL,PennController,8,_Trial_,Start,1635293349660,D,one,label1,fruit,NULL
1635293517,32ba17f103f1bd62e52fae34c440b830,8,0,experiment,NULL,SelectionGrid,test-phase,Selections,contrast-green_apple-1.jpg;contrast-green_apple-2.jpg|contrast-green_apple-1.jpg;true;3550:contrast-green_apple-1.jpg;false;6687:contrast-green_apple-1.jpg;true;7587:contrast-green_apple-2.jpg;true;8472,1635293349667,D,one,label1,fruit,NULL
1635293517,32ba17f103f1bd62e52fae34c440b830,8,0,experiment,NULL,PennController,8,_Trial_,End,1635293378241,D,one,label1,fruit,NULL
1635293517,32ba17f103f1bd62e52fae34c440b830,9,0,experiment,NULL,PennController,9,_Trial_,Start,1635293378244,D,three,label2,furniture,NULL
1635293517,32ba17f103f1bd62e52fae34c440b830,9,0,experiment,NULL,SelectionGrid,test-phase,Selections,contrast-office_chair-2.jpg;contrast-office_chair-1.jpg|contrast-office_chair-2.jpg;true;2746:contrast-office_chair-1.jpg;true;3379,1635293378249,D,three,label2,furniture,NULL
1635293517,32ba17f103f1bd62e52fae34c440b830,9,0,experiment,NULL,PennController,9,_Trial_,End,1635293403108,D,three,label2,furniture,NULL
1635293517,32ba17f103f1bd62e52fae34c440b830,10,0,experiment,NULL,PennController,10,_Trial_,Start,1635293403111,D,one,label1,light,NULL
1635293517,32ba17f103f1bd62e52fae34c440b830,10,0,experiment,NULL,SelectionGrid,test-phase,Selections,sub-gooseneck_lamp-2.jpg|sub-gooseneck_lamp-2.jpg;true;3294,1635293403116,D,one,label1,light,NULL
1635293517,32ba17f103f1bd62e52fae34c440b830,10,0,experiment,NULL,PennController,10,_Trial_,End,1635293426920,D,one,label1,light,NULL
1635293517,32ba17f103f1bd62e52fae34c440b830,11,0,experiment,NULL,PennController,11,_Trial_,Start,1635293426922,D,one,label1,Filler-Shape-triangle,NULL
1635293517,32ba17f103f1bd62e52fae34c440b830,11,0,experiment,NULL,SelectionGrid,test-phase,Selections,triangle-3.jpg;triangle-5.jpg;triangle-2.jpg;triangle-4.jpg;triangle-1.jpg|triangle-3.jpg;true;2122:triangle-5.jpg;true;2669:triangle-2.jpg;true;3197:triangle-4.jpg;true;3708:triangle-1.jpg;true;4136,1635293426929,D,one,label1,Filler-Shape-triangle,NULL
1635293517,32ba17f103f1bd62e52fae34c440b830,11,0,experiment,NULL,PennController,11,_Trial_,End,1635293444511,D,one,label1,Filler-Shape-triangle,NULL
1635293517,32ba17f103f1bd62e52fae34c440b830,12,0,experiment,NULL,PennController,12,_Trial_,Start,1635293444513,D,three,label2,vegetable,NULL
1635293517,32ba17f103f1bd62e52fae34c440b830,12,0,experiment,NULL,SelectionGrid,test-phase,Selections,contrast-red_pepper-2.jpg;contrast-red_pepper-1.jpg|contrast-red_pepper-2.jpg;true;2618:contrast-red_pepper-1.jpg;true;3843,1635293444520,D,three,label2,vegetable,NULL
1635293517,32ba17f103f1bd62e52fae34c440b830,12,0,experiment,NULL,PennController,12,_Trial_,End,1635293469605,D,three,label2,vegetable,NULL
1635293517,32ba17f103f1bd62e52fae34c440b830,13,0,experiment,NULL,PennController,13,_Trial_,Start,1635293469608,D,one,label1,vehicle,NULL
1635293517,32ba17f103f1bd62e52fae34c440b830,13,0,experiment,NULL,SelectionGrid,test-phase,Selections,basic-car-2.jpg|basic-car-2.jpg;true;5895:basic-car-3.jpg;true;7464:basic-car-3.jpg;false;13317,1635293469613,D,one,label1,vehicle,NULL
1635293517,32ba17f103f1bd62e52fae34c440b830,13,0,experiment,NULL,PennController,13,_Trial_,End,1635293509601,D,one,label1,vehicle,NULL
# 13. window_size.
# 14. Comments.
1635293517,32ba17f103f1bd62e52fae34c440b830,14,0,end,NULL,PennController,2,_Trial_,Start,1635293509603,1283x652,NULL
1635293517,32ba17f103f1bd62e52fae34c440b830,14,0,end,NULL,PennController,2,_Trial_,End,1635293517065,1283x652,NULL
#
# Results on Wed, 27 Oct 2021 00:30:32 GMT
# USER AGENT: Mozilla/5.0 (Macintosh; Intel Mac OS X 10_15_7) AppleWebKit/605.1.15 (KHTML, like Gecko) Version/13.1.3 Safari/605.1.15
# Design number was non-random = 4
#
# Columns below this comment are as follows:
# 1. Results reception time.
# 2. MD5 hash of participant's IP address.
# 3. Controller name.
# 4. Order number of item.
# 5. Inner element number.
# 6. Label.
# 7. Latin Square Group.
# 8. PennElementType.
# 9. PennElementName.
# 10. Parameter.
# 11. Value.
# 12. EventTime.
# 13. ID.
# 14. Comments.
1635294632,9850060ab672035be0ddedf7f90194e0,2,0,intro,NULL,PennController,0,_Trial_,Start,1635294379008,9863,NULL
1635294632,9850060ab672035be0ddedf7f90194e0,2,0,intro,NULL,PennController,0,_Trial_,End,1635294386773,9863,NULL
# 13. Comments.
1635294632,9850060ab672035be0ddedf7f90194e0,3,0,beginning,NULL,PennController,1,_Trial_,Start,1635294386780,NULL
1635294632,9850060ab672035be0ddedf7f90194e0,3,0,beginning,NULL,PennController,1,_Trial_,End,1635294394818,NULL
# 13. group.
# 14. number.
# 15. target.
# 16. item.
# 17. Comments.
1635294632,9850060ab672035be0ddedf7f90194e0,4,0,experiment,NULL,PennController,4,_Trial_,Start,1635294394819,A,one,label1,animal,NULL
1635294632,9850060ab672035be0ddedf7f90194e0,4,0,experiment,NULL,SelectionGrid,test-phase,Selections,sub-dalmatian-1.jpg;sub-dalmatian-2.jpg|sub-dalmatian-1.jpg;true;8411:sub-dalmatian-2.jpg;true;9281,1635294394822,A,one,label1,animal,NULL
1635294632,9850060ab672035be0ddedf7f90194e0,4,0,experiment,NULL,PennController,4,_Trial_,End,1635294423939,A,one,label1,animal,NULL
1635294632,9850060ab672035be0ddedf7f90194e0,5,0,experiment,NULL,PennController,5,_Trial_,Start,1635294423941,A,three,label2,beast,NULL
1635294632,9850060ab672035be0ddedf7f90194e0,5,0,experiment,NULL,SelectionGrid,test-phase,Selections,basic-dinosaur-1.jpg;contrast-triceratops-1.jpg;contrast-triceratops-2.jpg|basic-dinosaur-1.jpg;true;5661:contrast-triceratops-1.jpg;true;6380:contrast-triceratops-2.jpg;true;8675,1635294423946,A,three,label2,beast,NULL
1635294632,9850060ab672035be0ddedf7f90194e0,5,0,experiment,NULL,PennController,5,_Trial_,End,1635294453796,A,three,label2,beast,NULL
1635294632,9850060ab672035be0ddedf7f90194e0,6,0,experiment,NULL,PennController,6,_Trial_,Start,1635294453799,A,one,label1,electronics,NULL
1635294632,9850060ab672035be0ddedf7f90194e0,6,0,experiment,NULL,SelectionGrid,test-phase,Selections,contrast-flip_phone-2.jpg;contrast-flip_phone-1.jpg|contrast-flip_phone-2.jpg;true;5601:contrast-flip_phone-1.jpg;true;6240,1635294453804,A,one,label1,electronics,NULL
1635294632,9850060ab672035be0ddedf7f90194e0,6,0,experiment,NULL,PennController,6,_Trial_,End,1635294479886,A,one,label1,electronics,NULL
1635294632,9850060ab672035be0ddedf7f90194e0,7,0,experiment,NULL,PennController,7,_Trial_,Start,1635294479889,A,one,label1,Filler-Color-red,NULL
1635294632,9850060ab672035be0ddedf7f90194e0,7,0,experiment,NULL,SelectionGrid,test-phase,Selections,red-rect.jpg|red-rect.jpg;true;1781:red-rect.jpg;true;2277:red-rect.jpg;true;2805:red-rect.jpg;true;3363:red-rect.jpg;true;3756:red-rect.jpg;true;4374,1635294479893,A,one,label1,Filler-Color-red,NULL
1635294632,9850060ab672035be0ddedf7f90194e0,7,0,experiment,NULL,PennController,7,_Trial_,End,1635294497074,A,one,label1,Filler-Color-red,NULL
1635294632,9850060ab672035be0ddedf7f90194e0,8,0,experiment,NULL,PennController,8,_Trial_,Start,1635294497076,A,three,label2,fruit,NULL
1635294632,9850060ab672035be0ddedf7f90194e0,8,0,experiment,NULL,SelectionGrid,test-phase,Selections,contrast-green_apple-2.jpg;basic-apple-2.jpg;contrast-green_apple-1.jpg;basic-apple-1.jpg|contrast-green_apple-2.jpg;true;1721:basic-apple-2.jpg;true;2315:contrast-green_apple-1.jpg;true;2954:basic-apple-1.jpg;true;3441,1635294497081,A,three,label2,fruit,NULL
1635294632,9850060ab672035be0ddedf7f90194e0,8,0,experiment,NULL,PennController,8,_Trial_,End,1635294520770,A,three,label2,fruit,NULL
1635294632,9850060ab672035be0ddedf7f90194e0,9,0,experiment,NULL,PennController,9,_Trial_,Start,1635294520773,A,one,label1,furniture,NULL
1635294632,9850060ab672035be0ddedf7f90194e0,9,0,experiment,NULL,SelectionGrid,test-phase,Selections,sub-wooden_chair-2.jpg|sub-wooden_chair-2.jpg;true;1208,1635294520777,A,one,label1,furniture,NULL
1635294632,9850060ab672035be0ddedf7f90194e0,9,0,experiment,NULL,PennController,9,_Trial_,End,1635294544724,A,one,label1,furniture,NULL
1635294632,9850060ab672035be0ddedf7f90194e0,10,0,experiment,NULL,PennController,10,_Trial_,Start,1635294544726,A,three,label2,light,NULL
1635294632,9850060ab672035be0ddedf7f90194e0,10,0,experiment,NULL,SelectionGrid,test-phase,Selections,contrast-desk_lamp-2.jpg;contrast-desk_lamp-1.jpg|contrast-desk_lamp-2.jpg;true;2491:contrast-desk_lamp-1.jpg;true;3347,1635294544730,A,three,label2,light,NULL
1635294632,9850060ab672035be0ddedf7f90194e0,10,0,experiment,NULL,PennController,10,_Trial_,End,1635294568432,A,three,label2,light,NULL
1635294632,9850060ab672035be0ddedf7f90194e0,11,0,experiment,NULL,PennController,11,_Trial_,Start,1635294568434,A,one,label1,Filler-Shape-triangle,NULL
1635294632,9850060ab672035be0ddedf7f90194e0,11,0,experiment,NULL,SelectionGrid,test-phase,Selections,triangle-5.jpg;triangle-3.jpg;triangle-2.jpg;triangle-4.jpg;triangle-1.jpg|triangle-5.jpg;true;2029:triangle-3.jpg;true;2388:triangle-2.jpg;true;2780:triangle-4.jpg;true;3228:triangle-1.jpg;true;3635,1635294568439,A,one,label1,Filler-Shape-triangle,NULL
1635294632,9850060ab672035be0ddedf7f90194e0,11,0,experiment,NULL,PennController,11,_Trial_,End,1635294584900,A,one,label1,Filler-Shape-triangle,NULL
1635294632,9850060ab672035be0ddedf7f90194e0,12,0,experiment,NULL,PennController,12,_Trial_,Start,1635294584902,A,one,label1,vegetable,NULL
1635294632,9850060ab672035be0ddedf7f90194e0,12,0,experiment,NULL,SelectionGrid,test-phase,Selections,sub-green_pepper-1.jpg;sub-green_pepper-2.jpg|sub-green_pepper-1.jpg;true;1671:sub-green_pepper-2.jpg;true;2396,1635294584907,A,one,label1,vegetable,NULL
1635294632,9850060ab672035be0ddedf7f90194e0,12,0,experiment,NULL,PennController,12,_Trial_,End,1635294608078,A,one,label1,vegetable,NULL
1635294632,9850060ab672035be0ddedf7f90194e0,13,0,experiment,NULL,PennController,13,_Trial_,Start,1635294608081,A,three,label2,vehicle,NULL
1635294632,9850060ab672035be0ddedf7f90194e0,13,0,experiment,NULL,SelectionGrid,test-phase,Selections,contrast-van-1.jpg;contrast-van-2.jpg|contrast-van-1.jpg;true;1834:contrast-van-2.jpg;true;2458,1635294608085,A,three,label2,vehicle,NULL
1635294632,9850060ab672035be0ddedf7f90194e0,13,0,experiment,NULL,PennController,13,_Trial_,End,1635294630642,A,three,label2,vehicle,NULL
# 13. window_size.
# 14. Comments.
1635294632,9850060ab672035be0ddedf7f90194e0,14,0,end,NULL,PennController,2,_Trial_,Start,1635294630644,1388x814,NULL
1635294632,9850060ab672035be0ddedf7f90194e0,14,0,end,NULL,PennController,2,_Trial_,End,1635294632550,1388x814,NULL
#
# Results on Wed, 27 Oct 2021 00:44:23 GMT
# USER AGENT: Mozilla/5.0 (Macintosh; Intel Mac OS X 10_15_7) AppleWebKit/605.1.15 (KHTML, like Gecko) Version/15.0 Safari/605.1.15
# Design number was non-random = 5
#
# Columns below this comment are as follows:
# 1. Results reception time.
# 2. MD5 hash of participant's IP address.
# 3. Controller name.
# 4. Order number of item.
# 5. Inner element number.
# 6. Label.
# 7. Latin Square Group.
# 8. PennElementType.
# 9. PennElementName.
# 10. Parameter.
# 11. Value.
# 12. EventTime.
# 13. ID.
# 14. Comments.
1635295463,cd7c595350c10c738a656b6c2181a9f9,2,0,intro,NULL,PennController,0,_Trial_,Start,1635295219234,8237,NULL
1635295463,cd7c595350c10c738a656b6c2181a9f9,2,0,intro,NULL,PennController,0,_Trial_,End,1635295225336,8237,NULL
# 13. Comments.
1635295463,cd7c595350c10c738a656b6c2181a9f9,3,0,beginning,NULL,PennController,1,_Trial_,Start,1635295225342,NULL
1635295463,cd7c595350c10c738a656b6c2181a9f9,3,0,beginning,NULL,PennController,1,_Trial_,End,1635295232121,NULL
# 13. group.
# 14. number.
# 15. target.
# 16. item.
# 17. Comments.
1635295463,cd7c595350c10c738a656b6c2181a9f9,4,0,experiment,NULL,PennController,4,_Trial_,Start,1635295232123,B,one,label2,animal,NULL
1635295463,cd7c595350c10c738a656b6c2181a9f9,4,0,experiment,NULL,SelectionGrid,test-phase,Selections,contrast-corgi-1.jpg;contrast-corgi-2.jpg;basic-dog-2.jpg|contrast-corgi-1.jpg;true;3383:contrast-corgi-2.jpg;true;3811:basic-dog-2.jpg;true;4258,1635295232129,B,one,label2,animal,NULL
1635295463,cd7c595350c10c738a656b6c2181a9f9,4,0,experiment,NULL,PennController,4,_Trial_,End,1635295257652,B,one,label2,animal,NULL
1635295463,cd7c595350c10c738a656b6c2181a9f9,5,0,experiment,NULL,PennController,5,_Trial_,Start,1635295257655,B,three,label1,beast,NULL
1635295463,cd7c595350c10c738a656b6c2181a9f9,5,0,experiment,NULL,SelectionGrid,test-phase,Selections,sub-trex-1.jpg;sub-trex-2.jpg|basic-dinosaur-3.jpg;true;3174:basic-dinosaur-3.jpg;false;3688:sub-trex-1.jpg;true;4447:sub-trex-2.jpg;true;5254,1635295257659,B,three,label1,beast,NULL
1635295463,cd7c595350c10c738a656b6c2181a9f9,5,0,experiment,NULL,PennController,5,_Trial_,End,1635295283116,B,three,label1,beast,NULL
1635295463,cd7c595350c10c738a656b6c2181a9f9,6,0,experiment,NULL,PennController,6,_Trial_,Start,1635295283119,B,one,label2,electronics,NULL
1635295463,cd7c595350c10c738a656b6c2181a9f9,6,0,experiment,NULL,SelectionGrid,test-phase,Selections,sub-smart_phone-2.jpg;sub-smart_phone-1.jpg|sub-smart_phone-2.jpg;true;2353:sub-smart_phone-1.jpg;true;3863,1635295283123,B,one,label2,electronics,NULL
1635295463,cd7c595350c10c738a656b6c2181a9f9,6,0,experiment,NULL,PennController,6,_Trial_,End,1635295307336,B,one,label2,electronics,NULL
1635295463,cd7c595350c10c738a656b6c2181a9f9,7,0,experiment,NULL,PennController,7,_Trial_,Start,1635295307337,B,one,label1,Filler-Color-red,NULL
1635295463,cd7c595350c10c738a656b6c2181a9f9,7,0,experiment,NULL,SelectionGrid,test-phase,Selections,red-rect.jpg|red-rect.jpg;true;1991:red-rect.jpg;true;2347:red-rect.jpg;true;2752:red-rect.jpg;true;3272:red-rect.jpg;true;3775:red-rect.jpg;true;4080,1635295307339,B,one,label1,Filler-Color-red,NULL
1635295463,cd7c595350c10c738a656b6c2181a9f9,7,0,experiment,NULL,PennController,7,_Trial_,End,1635295324124,B,one,label1,Filler-Color-red,NULL
1635295463,cd7c595350c10c738a656b6c2181a9f9,8,0,experiment,NULL,PennController,8,_Trial_,Start,1635295324126,B,three,label1,fruit,NULL
1635295463,cd7c595350c10c738a656b6c2181a9f9,8,0,experiment,NULL,SelectionGrid,test-phase,Selections,sub-red_apple-1.jpg;contrast-green_apple-1.jpg;basic-apple-1.jpg;contrast-green_apple-2.jpg;basic-apple-2.jpg;basic-apple-3.jpg;sub-red_apple-2.jpg|sub-red_apple-1.jpg;true;4131:contrast-green_apple-1.jpg;true;4677:basic-apple-1.jpg;true;5030:contrast-green_apple-2.jpg;true;5651:basic-apple-2.jpg;true;5973:basic-apple-3.jpg;true;7038:sub-red_apple-2.jpg;true;7671,1635295324130,B,three,label1,fruit,NULL
1635295463,cd7c595350c10c738a656b6c2181a9f9,8,0,experiment,NULL,PennController,8,_Trial_,End,1635295351754,B,three,label1,fruit,NULL
1635295463,cd7c595350c10c738a656b6c2181a9f9,9,0,experiment,NULL,PennController,9,_Trial_,Start,1635295351756,B,one,label2,furniture,NULL
1635295463,cd7c595350c10c738a656b6c2181a9f9,9,0,experiment,NULL,SelectionGrid,test-phase,Selections,contrast-office_chair-2.jpg;contrast-office_chair-1.jpg|contrast-office_chair-2.jpg;true;2869:contrast-office_chair-1.jpg;true;3356,1635295351761,B,one,label2,furniture,NULL
1635295463,cd7c595350c10c738a656b6c2181a9f9,9,0,experiment,NULL,PennController,9,_Trial_,End,1635295376093,B,one,label2,furniture,NULL
1635295463,cd7c595350c10c738a656b6c2181a9f9,10,0,experiment,NULL,PennController,10,_Trial_,Start,1635295376095,B,three,label1,light,NULL
1635295463,cd7c595350c10c738a656b6c2181a9f9,10,0,experiment,NULL,SelectionGrid,test-phase,Selections,sub-gooseneck_lamp-1.jpg;sub-gooseneck_lamp-2.jpg|sub-gooseneck_lamp-1.jpg;true;2294:sub-gooseneck_lamp-2.jpg;true;2979,1635295376099,B,three,label1,light,NULL
1635295463,cd7c595350c10c738a656b6c2181a9f9,10,0,experiment,NULL,PennController,10,_Trial_,End,1635295399396,B,three,label1,light,NULL
1635295463,cd7c595350c10c738a656b6c2181a9f9,11,0,experiment,NULL,PennController,11,_Trial_,Start,1635295399398,B,one,label1,Filler-Shape-triangle,NULL
1635295463,cd7c595350c10c738a656b6c2181a9f9,11,0,experiment,NULL,SelectionGrid,test-phase,Selections,triangle-5.jpg;triangle-3.jpg;triangle-2.jpg;triangle-4.jpg;triangle-1.jpg|triangle-5.jpg;true;1068:triangle-3.jpg;true;1445:triangle-2.jpg;true;1752:triangle-4.jpg;true;2222:triangle-1.jpg;true;2577,1635295399402,B,one,label1,Filler-Shape-triangle,NULL
1635295463,cd7c595350c10c738a656b6c2181a9f9,11,0,experiment,NULL,PennController,11,_Trial_,End,1635295414679,B,one,label1,Filler-Shape-triangle,NULL
1635295463,cd7c595350c10c738a656b6c2181a9f9,12,0,experiment,NULL,PennController,12,_Trial_,Start,1635295414681,B,one,label2,vegetable,NULL
1635295463,cd7c595350c10c738a656b6c2181a9f9,12,0,experiment,NULL,SelectionGrid,test-phase,Selections,contrast-red_pepper-1.jpg;contrast-red_pepper-2.jpg|contrast-red_pepper-1.jpg;true;1600:contrast-red_pepper-2.jpg;true;2372,1635295414685,B,one,label2,vegetable,NULL
1635295463,cd7c595350c10c738a656b6c2181a9f9,12,0,experiment,NULL,PennController,12,_Trial_,End,1635295438177,B,one,label2,vegetable,NULL
1635295463,cd7c595350c10c738a656b6c2181a9f9,13,0,experiment,NULL,PennController,13,_Trial_,Start,1635295438179,B,three,label1,vehicle,NULL
1635295463,cd7c595350c10c738a656b6c2181a9f9,13,0,experiment,NULL,SelectionGrid,test-phase,Selections,sub-racecar-2.jpg;sub-racecar-1.jpg|sub-racecar-2.jpg;true;1821:sub-racecar-1.jpg;true;2742,1635295438183,B,three,label1,vehicle,NULL
1635295463,cd7c595350c10c738a656b6c2181a9f9,13,0,experiment,NULL,PennController,13,_Trial_,End,1635295461433,B,three,label1,vehicle,NULL
# 13. window_size.
# 14. Comments.
1635295463,cd7c595350c10c738a656b6c2181a9f9,14,0,end,NULL,PennController,2,_Trial_,Start,1635295461435,1400x729,NULL
1635295463,cd7c595350c10c738a656b6c2181a9f9,14,0,end,NULL,PennController,2,_Trial_,End,1635295463496,1400x729,NULL
#
# Results on Wed, 27 Oct 2021 01:08:20 GMT
# USER AGENT: Mozilla/5.0 (Macintosh; Intel Mac OS X 10_15_7) AppleWebKit/605.1.15 (KHTML, like Gecko) Version/14.1.2 Safari/605.1.15
# Design number was non-random = 6
#
# Columns below this comment are as follows:
# 1. Results reception time.
# 2. MD5 hash of participant's IP address.
# 3. Controller name.
# 4. Order number of item.
# 5. Inner element number.
# 6. Label.
# 7. Latin Square Group.
# 8. PennElementType.
# 9. PennElementName.
# 10. Parameter.
# 11. Value.
# 12. EventTime.
# 13. ID.
# 14. Comments.
1635296900,34ecd0d3050bd60e8c8a762cef7e2be6,2,0,intro,NULL,PennController,0,_Trial_,Start,1635296600939,7817,NULL
1635296900,34ecd0d3050bd60e8c8a762cef7e2be6,2,0,intro,NULL,PennController,0,_Trial_,End,1635296606080,7817,NULL
# 13. Comments.
1635296900,34ecd0d3050bd60e8c8a762cef7e2be6,3,0,beginning,NULL,PennController,1,_Trial_,Start,1635296606087,NULL
1635296900,34ecd0d3050bd60e8c8a762cef7e2be6,3,0,beginning,NULL,PennController,1,_Trial_,End,1635296620161,NULL
# 13. group.
# 14. number.
# 15. target.
# 16. item.
# 17. Comments.
1635296900,34ecd0d3050bd60e8c8a762cef7e2be6,4,0,experiment,NULL,PennController,4,_Trial_,Start,1635296620164,C,three,label1,animal,NULL
1635296900,34ecd0d3050bd60e8c8a762cef7e2be6,4,0,experiment,NULL,SelectionGrid,test-phase,Selections,sub-dalmatian-1.jpg;sub-dalmatian-2.jpg|sub-dalmatian-1.jpg;true;6446:sub-dalmatian-2.jpg;true;7550,1635296620170,C,three,label1,animal,NULL
1635296900,34ecd0d3050bd60e8c8a762cef7e2be6,4,0,experiment,NULL,PennController,4,_Trial_,End,1635296651518,C,three,label1,animal,NULL
1635296900,34ecd0d3050bd60e8c8a762cef7e2be6,5,0,experiment,NULL,PennController,5,_Trial_,Start,1635296651521,C,one,label2,beast,NULL
1635296900,34ecd0d3050bd60e8c8a762cef7e2be6,5,0,experiment,NULL,SelectionGrid,test-phase,Selections,contrast-triceratops-2.jpg;contrast-triceratops-1.jpg|contrast-triceratops-2.jpg;true;3774:contrast-triceratops-1.jpg;true;7266,1635296651525,C,one,label2,beast,NULL
1635296900,34ecd0d3050bd60e8c8a762cef7e2be6,5,0,experiment,NULL,PennController,5,_Trial_,End,1635296682543,C,one,label2,beast,NULL
1635296900,34ecd0d3050bd60e8c8a762cef7e2be6,6,0,experiment,NULL,PennController,6,_Trial_,Start,1635296682545,C,three,label1,electronics,NULL
1635296900,34ecd0d3050bd60e8c8a762cef7e2be6,6,0,experiment,NULL,SelectionGrid,test-phase,Selections,sub-smart_phone-1.jpg;sub-smart_phone-2.jpg|sub-smart_phone-1.jpg;true;4190:sub-smart_phone-2.jpg;true;5710,1635296682549,C,three,label1,electronics,NULL
1635296900,34ecd0d3050bd60e8c8a762cef7e2be6,6,0,experiment,NULL,PennController,6,_Trial_,End,1635296715376,C,three,label1,electronics,NULL
1635296900,34ecd0d3050bd60e8c8a762cef7e2be6,7,0,experiment,NULL,PennController,7,_Trial_,Start,1635296715378,C,one,label1,Filler-Color-red,NULL
1635296900,34ecd0d3050bd60e8c8a762cef7e2be6,7,0,experiment,NULL,SelectionGrid,test-phase,Selections,red-rect.jpg|red-rect.jpg;true;3950:red-rect.jpg;true;4559:red-rect.jpg;true;5248:red-rect.jpg;true;5939:red-rect.jpg;true;7053:red-rect.jpg;true;7483,1635296715381,C,one,label1,Filler-Color-red,NULL
1635296900,34ecd0d3050bd60e8c8a762cef7e2be6,7,0,experiment,NULL,PennController,7,_Trial_,End,1635296735973,C,one,label1,Filler-Color-red,NULL
1635296900,34ecd0d3050bd60e8c8a762cef7e2be6,8,0,experiment,NULL,PennController,8,_Trial_,Start,1635296735975,C,one,label2,fruit,NULL
1635296900,34ecd0d3050bd60e8c8a762cef7e2be6,8,0,experiment,NULL,SelectionGrid,test-phase,Selections,contrast-green_apple-2.jpg;contrast-green_apple-1.jpg|contrast-green_apple-2.jpg;true;3239:contrast-green_apple-1.jpg;true;4132,1635296735979,C,one,label2,fruit,NULL
1635296900,34ecd0d3050bd60e8c8a762cef7e2be6,8,0,experiment,NULL,PennController,8,_Trial_,End,1635296767825,C,one,label2,fruit,NULL
1635296900,34ecd0d3050bd60e8c8a762cef7e2be6,9,0,experiment,NULL,PennController,9,_Trial_,Start,1635296767828,C,three,label1,furniture,NULL
1635296900,34ecd0d3050bd60e8c8a762cef7e2be6,9,0,experiment,NULL,SelectionGrid,test-phase,Selections,sub-wooden_chair-1.jpg;sub-wooden_chair-2.jpg|sub-wooden_chair-1.jpg;true;4270:sub-wooden_chair-2.jpg;true;5009,1635296767831,C,three,label1,furniture,NULL
1635296900,34ecd0d3050bd60e8c8a762cef7e2be6,9,0,experiment,NULL,PennController,9,_Trial_,End,1635296797478,C,three,label1,furniture,NULL
1635296900,34ecd0d3050bd60e8c8a762cef7e2be6,10,0,experiment,NULL,PennController,10,_Trial_,Start,1635296797481,C,one,label2,light,NULL
1635296900,34ecd0d3050bd60e8c8a762cef7e2be6,10,0,experiment,NULL,SelectionGrid,test-phase,Selections,contrast-desk_lamp-1.jpg;contrast-desk_lamp-2.jpg|contrast-desk_lamp-1.jpg;true;4702:contrast-desk_lamp-2.jpg;true;5676,1635296797484,C,one,label2,light,NULL
1635296900,34ecd0d3050bd60e8c8a762cef7e2be6,10,0,experiment,NULL,PennController,10,_Trial_,End,1635296826342,C,one,label2,light,NULL
1635296900,34ecd0d3050bd60e8c8a762cef7e2be6,11,0,experiment,NULL,PennController,11,_Trial_,Start,1635296826343,C,one,label1,Filler-Shape-triangle,NULL
1635296900,34ecd0d3050bd60e8c8a762cef7e2be6,11,0,experiment,NULL,SelectionGrid,test-phase,Selections,triangle-5.jpg;triangle-3.jpg;triangle-2.jpg;triangle-4.jpg;triangle-1.jpg|triangle-5.jpg;true;2194:triangle-3.jpg;true;2794:triangle-2.jpg;true;3193:triangle-4.jpg;true;3745:triangle-1.jpg;true;4378,1635296826347,C,one,label1,Filler-Shape-triangle,NULL
1635296900,34ecd0d3050bd60e8c8a762cef7e2be6,11,0,experiment,NULL,PennController,11,_Trial_,End,1635296843595,C,one,label1,Filler-Shape-triangle,NULL
1635296900,34ecd0d3050bd60e8c8a762cef7e2be6,12,0,experiment,NULL,PennController,12,_Trial_,Start,1635296843596,C,three,label1,vegetable,NULL
1635296900,34ecd0d3050bd60e8c8a762cef7e2be6,12,0,experiment,NULL,SelectionGrid,test-phase,Selections,sub-green_pepper-2.jpg;sub-green_pepper-1.jpg|sub-green_pepper-2.jpg;true;4832:sub-green_pepper-1.jpg;true;6360,1635296843600,C,three,label1,vegetable,NULL
1635296900,34ecd0d3050bd60e8c8a762cef7e2be6,12,0,experiment,NULL,PennController,12,_Trial_,End,1635296872668,C,three,label1,vegetable,NULL
1635296900,34ecd0d3050bd60e8c8a762cef7e2be6,13,0,experiment,NULL,PennController,13,_Trial_,Start,1635296872669,C,one,label2,vehicle,NULL
1635296900,34ecd0d3050bd60e8c8a762cef7e2be6,13,0,experiment,NULL,SelectionGrid,test-phase,Selections,contrast-van-2.jpg;contrast-van-1.jpg|contrast-van-2.jpg;true;2878:contrast-van-1.jpg;true;3950,1635296872672,C,one,label2,vehicle,NULL
1635296900,34ecd0d3050bd60e8c8a762cef7e2be6,13,0,experiment,NULL,PennController,13,_Trial_,End,1635296897839,C,one,label2,vehicle,NULL
# 13. window_size.
# 14. Comments.
1635296900,34ecd0d3050bd60e8c8a762cef7e2be6,14,0,end,NULL,PennController,2,_Trial_,Start,1635296897840,1440x820,NULL
1635296900,34ecd0d3050bd60e8c8a762cef7e2be6,14,0,end,NULL,PennController,2,_Trial_,End,1635296900444,1440x820,NULL
#
# Results on Wed, 27 Oct 2021 01:16:45 GMT
# USER AGENT: Mozilla/5.0 (Macintosh; Intel Mac OS X 10_15_7) AppleWebKit/537.36 (KHTML, like Gecko) Chrome/95.0.4638.54 Safari/537.36
# Design number was non-random = 7
#
# Columns below this comment are as follows:
# 1. Results reception time.
# 2. MD5 hash of participant's IP address.
# 3. Controller name.
# 4. Order number of item.
# 5. Inner element number.
# 6. Label.
# 7. Latin Square Group.
# 8. PennElementType.
# 9. PennElementName.
# 10. Parameter.
# 11. Value.
# 12. EventTime.
# 13. ID.
# 14. Comments.
1635297405,c206633da2fc6c294aab118f2e148208,2,0,intro,NULL,PennController,0,_Trial_,Start,1635297122776,9922,NULL
1635297405,c206633da2fc6c294aab118f2e148208,2,0,intro,NULL,PennController,0,_Trial_,End,1635297125812,9922,NULL
# 13. Comments.
1635297405,c206633da2fc6c294aab118f2e148208,3,0,beginning,NULL,PennController,1,_Trial_,Start,1635297125818,NULL
1635297405,c206633da2fc6c294aab118f2e148208,3,0,beginning,NULL,PennController,1,_Trial_,End,1635297136741,NULL
# 13. group.
# 14. number.
# 15. target.
# 16. item.
# 17. Comments.
1635297405,c206633da2fc6c294aab118f2e148208,4,0,experiment,NULL,PennController,4,_Trial_,Start,1635297136742,D,three,label2,animal,NULL
1635297405,c206633da2fc6c294aab118f2e148208,4,0,experiment,NULL,SelectionGrid,test-phase,Selections,contrast-corgi-2.jpg;contrast-corgi-1.jpg|contrast-corgi-2.jpg;true;2583:contrast-corgi-1.jpg;true;3190,1635297136745,D,three,label2,animal,NULL
1635297405,c206633da2fc6c294aab118f2e148208,4,0,experiment,NULL,PennController,4,_Trial_,End,1635297162424,D,three,label2,animal,NULL
1635297405,c206633da2fc6c294aab118f2e148208,5,0,experiment,NULL,PennController,5,_Trial_,Start,1635297162425,D,one,label1,beast,NULL
1635297405,c206633da2fc6c294aab118f2e148208,5,0,experiment,NULL,SelectionGrid,test-phase,Selections,sub-trex-1.jpg;sub-trex-2.jpg|sub-trex-1.jpg;true;2270:sub-trex-2.jpg;true;4869,1635297162428,D,one,label1,beast,NULL
1635297405,c206633da2fc6c294aab118f2e148208,5,0,experiment,NULL,PennController,5,_Trial_,End,1635297193429,D,one,label1,beast,NULL
1635297405,c206633da2fc6c294aab118f2e148208,6,0,experiment,NULL,PennController,6,_Trial_,Start,1635297193430,D,three,label2,electronics,NULL
1635297405,c206633da2fc6c294aab118f2e148208,6,0,experiment,NULL,SelectionGrid,test-phase,Selections,contrast-flip_phone-1.jpg;contrast-flip_phone-2.jpg|contrast-flip_phone-1.jpg;true;2704:contrast-flip_phone-2.jpg;true;3231,1635297193432,D,three,label2,electronics,NULL
1635297405,c206633da2fc6c294aab118f2e148208,6,0,experiment,NULL,PennController,6,_Trial_,End,1635297223854,D,three,label2,electronics,NULL
1635297405,c206633da2fc6c294aab118f2e148208,7,0,experiment,NULL,PennController,7,_Trial_,Start,1635297223855,D,one,label1,Filler-Color-red,NULL
1635297405,c206633da2fc6c294aab118f2e148208,7,0,experiment,NULL,SelectionGrid,test-phase,Selections,green-rect.jpg|green-rect.jpg;true;17774:green-rect.jpg;true;18150:green-rect.jpg;true;18624:green-rect.jpg;true;19584:green-rect.jpg;true;20177:green-rect.jpg;true;21184,1635297223858,D,one,label1,Filler-Color-red,NULL
1635297405,c206633da2fc6c294aab118f2e148208,7,0,experiment,NULL,PennController,7,_Trial_,End,1635297259629,D,one,label1,Filler-Color-red,NULL
1635297405,c206633da2fc6c294aab118f2e148208,8,0,experiment,NULL,PennController,8,_Trial_,Start,1635297259630,D,one,label1,fruit,NULL
1635297405,c206633da2fc6c294aab118f2e148208,8,0,experiment,NULL,SelectionGrid,test-phase,Selections,sub-red_apple-1.jpg;sub-red_apple-2.jpg|sub-red_apple-1.jpg;true;3474:sub-red_apple-2.jpg;true;4090,1635297259632,D,one,label1,fruit,NULL
1635297405,c206633da2fc6c294aab118f2e148208,8,0,experiment,NULL,PennController,8,_Trial_,End,1635297287026,D,one,label1,fruit,NULL
1635297405,c206633da2fc6c294aab118f2e148208,9,0,experiment,NULL,PennController,9,_Trial_,Start,1635297287027,D,three,label2,furniture,NULL
1635297405,c206633da2fc6c294aab118f2e148208,9,0,experiment,NULL,SelectionGrid,test-phase,Selections,contrast-office_chair-1.jpg;contrast-office_chair-2.jpg|contrast-office_chair-1.jpg;true;1937:contrast-office_chair-2.jpg;true;2370,1635297287030,D,three,label2,furniture,NULL
1635297405,c206633da2fc6c294aab118f2e148208,9,0,experiment,NULL,PennController,9,_Trial_,End,1635297312843,D,three,label2,furniture,NULL
1635297405,c206633da2fc6c294aab118f2e148208,10,0,experiment,NULL,PennController,10,_Trial_,Start,1635297312845,D,one,label1,light,NULL
1635297405,c206633da2fc6c294aab118f2e148208,10,0,experiment,NULL,SelectionGrid,test-phase,Selections,sub-gooseneck_lamp-2.jpg;sub-gooseneck_lamp-1.jpg|sub-gooseneck_lamp-2.jpg;true;1673:sub-gooseneck_lamp-1.jpg;true;2265,1635297312848,D,one,label1,light,NULL
1635297405,c206633da2fc6c294aab118f2e148208,10,0,experiment,NULL,PennController,10,_Trial_,End,1635297337157,D,one,label1,light,NULL
1635297405,c206633da2fc6c294aab118f2e148208,11,0,experiment,NULL,PennController,11,_Trial_,Start,1635297337158,D,one,label1,Filler-Shape-triangle,NULL
1635297405,c206633da2fc6c294aab118f2e148208,11,0,experiment,NULL,SelectionGrid,test-phase,Selections,triangle-3.jpg;triangle-2.jpg;triangle-4.jpg;triangle-1.jpg;triangle-5.jpg|triangle-3.jpg;true;2750:triangle-2.jpg;true;2999:triangle-4.jpg;true;3414:triangle-1.jpg;true;3822:triangle-5.jpg;true;4382,1635297337160,D,one,label1,Filler-Shape-triangle,NULL
1635297405,c206633da2fc6c294aab118f2e148208,11,0,experiment,NULL,PennController,11,_Trial_,End,1635297354283,D,one,label1,Filler-Shape-triangle,NULL
1635297405,c206633da2fc6c294aab118f2e148208,12,0,experiment,NULL,PennController,12,_Trial_,Start,1635297354284,D,three,label2,vegetable,NULL
1635297405,c206633da2fc6c294aab118f2e148208,12,0,experiment,NULL,SelectionGrid,test-phase,Selections,contrast-red_pepper-2.jpg;contrast-red_pepper-1.jpg|contrast-red_pepper-2.jpg;true;1238:contrast-red_pepper-1.jpg;true;1894,1635297354288,D,three,label2,vegetable,NULL
1635297405,c206633da2fc6c294aab118f2e148208,12,0,experiment,NULL,PennController,12,_Trial_,End,1635297376588,D,three,label2,vegetable,NULL
1635297405,c206633da2fc6c294aab118f2e148208,13,0,experiment,NULL,PennController,13,_Trial_,Start,1635297376589,D,one,label1,vehicle,NULL
1635297405,c206633da2fc6c294aab118f2e148208,13,0,experiment,NULL,SelectionGrid,test-phase,Selections,sub-racecar-2.jpg;sub-racecar-1.jpg|sub-racecar-2.jpg;true;2801:sub-racecar-1.jpg;true;7523,1635297376592,D,one,label1,vehicle,NULL
1635297405,c206633da2fc6c294aab118f2e148208,13,0,experiment,NULL,PennController,13,_Trial_,End,1635297404011,D,one,label1,vehicle,NULL
# 13. window_size.
# 14. Comments.
1635297405,c206633da2fc6c294aab118f2e148208,14,0,end,NULL,PennController,2,_Trial_,Start,1635297404012,1792x1009,NULL
1635297405,c206633da2fc6c294aab118f2e148208,14,0,end,NULL,PennController,2,_Trial_,End,1635297405706,1792x1009,NULL
#
# Results on Wed, 27 Oct 2021 01:26:48 GMT
# USER AGENT: Mozilla/5.0 (Macintosh; Intel Mac OS X 10_15_7) AppleWebKit/605.1.15 (KHTML, like Gecko) Version/15.0 Safari/605.1.15
# Design number was non-random = 8
#
# Columns below this comment are as follows:
# 1. Results reception time.
# 2. MD5 hash of participant's IP address.
# 3. Controller name.
# 4. Order number of item.
# 5. Inner element number.
# 6. Label.
# 7. Latin Square Group.
# 8. PennElementType.
# 9. PennElementName.
# 10. Parameter.
# 11. Value.
# 12. EventTime.
# 13. ID.
# 14. Comments.
1635298008,09ed7ba5a58dbc877b5dab0758509ddf,2,0,intro,NULL,PennController,0,_Trial_,Start,1635297605550,9753,NULL
1635298008,09ed7ba5a58dbc877b5dab0758509ddf,2,0,intro,NULL,PennController,0,_Trial_,End,1635297739772,9753,NULL
# 13. Comments.
1635298008,09ed7ba5a58dbc877b5dab0758509ddf,3,0,beginning,NULL,PennController,1,_Trial_,Start,1635297739777,NULL
1635298008,09ed7ba5a58dbc877b5dab0758509ddf,3,0,beginning,NULL,PennController,1,_Trial_,End,1635297749565,NULL
# 13. group.
# 14. number.
# 15. target.
# 16. item.
# 17. Comments.
1635298008,09ed7ba5a58dbc877b5dab0758509ddf,4,0,experiment,NULL,PennController,4,_Trial_,Start,1635297749567,A,one,label1,animal,NULL
1635298008,09ed7ba5a58dbc877b5dab0758509ddf,4,0,experiment,NULL,SelectionGrid,test-phase,Selections,sub-dalmatian-1.jpg;sub-dalmatian-2.jpg|sub-dalmatian-1.jpg;true;3993:sub-dalmatian-2.jpg;true;5179,1635297749573,A,one,label1,animal,NULL
1635298008,09ed7ba5a58dbc877b5dab0758509ddf,4,0,experiment,NULL,PennController,4,_Trial_,End,1635297775572,A,one,label1,animal,NULL
1635298008,09ed7ba5a58dbc877b5dab0758509ddf,5,0,experiment,NULL,PennController,5,_Trial_,Start,1635297775575,A,three,label2,beast,NULL
1635298008,09ed7ba5a58dbc877b5dab0758509ddf,5,0,experiment,NULL,SelectionGrid,test-phase,Selections,contrast-triceratops-2.jpg;contrast-triceratops-1.jpg|contrast-triceratops-2.jpg;true;4693:contrast-triceratops-1.jpg;true;6245,1635297775580,A,three,label2,beast,NULL
1635298008,09ed7ba5a58dbc877b5dab0758509ddf,5,0,experiment,NULL,PennController,5,_Trial_,End,1635297802306,A,three,label2,beast,NULL
1635298008,09ed7ba5a58dbc877b5dab0758509ddf,6,0,experiment,NULL,PennController,6,_Trial_,Start,1635297802309,A,one,label1,electronics,NULL
1635298008,09ed7ba5a58dbc877b5dab0758509ddf,6,0,experiment,NULL,SelectionGrid,test-phase,Selections,contrast-flip_phone-1.jpg;contrast-flip_phone-2.jpg|contrast-flip_phone-1.jpg;true;3006:contrast-flip_phone-2.jpg;true;3483:sub-smart_phone-2.jpg;true;7598:sub-smart_phone-1.jpg;true;8465:sub-smart_phone-1.jpg;false;10606:sub-smart_phone-2.jpg;false;11243,1635297802313,A,one,label1,electronics,NULL
1635298008,09ed7ba5a58dbc877b5dab0758509ddf,6,0,experiment,NULL,PennController,6,_Trial_,End,1635297833376,A,one,label1,electronics,NULL
1635298008,09ed7ba5a58dbc877b5dab0758509ddf,7,0,experiment,NULL,PennController,7,_Trial_,Start,1635297833378,A,one,label1,Filler-Color-red,NULL
1635298008,09ed7ba5a58dbc877b5dab0758509ddf,7,0,experiment,NULL,SelectionGrid,test-phase,Selections,red-rect.jpg|red-rect.jpg;true;1393:red-rect.jpg;true;2189:red-rect.jpg;true;2530:red-rect.jpg;true;3144:red-rect.jpg;true;3844:red-rect.jpg;true;4513,1635297833382,A,one,label1,Filler-Color-red,NULL
1635298008,09ed7ba5a58dbc877b5dab0758509ddf,7,0,experiment,NULL,PennController,7,_Trial_,End,1635297851168,A,one,label1,Filler-Color-red,NULL
1635298008,09ed7ba5a58dbc877b5dab0758509ddf,8,0,experiment,NULL,PennController,8,_Trial_,Start,1635297851170,A,three,label2,fruit,NULL
1635298008,09ed7ba5a58dbc877b5dab0758509ddf,8,0,experiment,NULL,SelectionGrid,test-phase,Selections,basic-apple-1.jpg;contrast-green_apple-1.jpg;basic-apple-2.jpg;contrast-green_apple-2.jpg|basic-apple-1.jpg;true;2343:contrast-green_apple-1.jpg;true;2779:basic-apple-2.jpg;true;3377:contrast-green_apple-2.jpg;true;4054,1635297851173,A,three,label2,fruit,NULL
1635298008,09ed7ba5a58dbc877b5dab0758509ddf,8,0,experiment,NULL,PennController,8,_Trial_,End,1635297876063,A,three,label2,fruit,NULL
1635298008,09ed7ba5a58dbc877b5dab0758509ddf,9,0,experiment,NULL,PennController,9,_Trial_,Start,1635297876064,A,one,label1,furniture,NULL
1635298008,09ed7ba5a58dbc877b5dab0758509ddf,9,0,experiment,NULL,SelectionGrid,test-phase,Selections,sub-wooden_chair-2.jpg;sub-wooden_chair-1.jpg|sub-wooden_chair-2.jpg;true;2884:sub-wooden_chair-1.jpg;true;9125,1635297876069,A,one,label1,furniture,NULL
1635298008,09ed7ba5a58dbc877b5dab0758509ddf,9,0,experiment,NULL,PennController,9,_Trial_,End,1635297907155,A,one,label1,furniture,NULL
1635298008,09ed7ba5a58dbc877b5dab0758509ddf,10,0,experiment,NULL,PennController,10,_Trial_,Start,1635297907156,A,three,label2,light,NULL
1635298008,09ed7ba5a58dbc877b5dab0758509ddf,10,0,experiment,NULL,SelectionGrid,test-phase,Selections,contrast-desk_lamp-1.jpg;contrast-desk_lamp-2.jpg|contrast-desk_lamp-1.jpg;true;1908:contrast-desk_lamp-2.jpg;true;4295,1635297907160,A,three,label2,light,NULL
1635298008,09ed7ba5a58dbc877b5dab0758509ddf,10,0,experiment,NULL,PennController,10,_Trial_,End,1635297932127,A,three,label2,light,NULL
1635298008,09ed7ba5a58dbc877b5dab0758509ddf,11,0,experiment,NULL,PennController,11,_Trial_,Start,1635297932129,A,one,label1,Filler-Shape-triangle,NULL
1635298008,09ed7ba5a58dbc877b5dab0758509ddf,11,0,experiment,NULL,SelectionGrid,test-phase,Selections,triangle-5.jpg;triangle-3.jpg;triangle-2.jpg;triangle-4.jpg;triangle-1.jpg|triangle-5.jpg;true;1365:triangle-3.jpg;true;1801:triangle-2.jpg;true;2265:triangle-4.jpg;true;2876:triangle-1.jpg;true;3298,1635297932133,A,one,label1,Filler-Shape-triangle,NULL
1635298008,09ed7ba5a58dbc877b5dab0758509ddf,11,0,experiment,NULL,PennController,11,_Trial_,End,1635297948918,A,one,label1,Filler-Shape-triangle,NULL
1635298008,09ed7ba5a58dbc877b5dab0758509ddf,12,0,experiment,NULL,PennController,12,_Trial_,Start,1635297948919,A,one,label1,vegetable,NULL
1635298008,09ed7ba5a58dbc877b5dab0758509ddf,12,0,experiment,NULL,SelectionGrid,test-phase,Selections,sub-green_pepper-1.jpg;sub-green_pepper-2.jpg|sub-green_pepper-1.jpg;true;4470:sub-green_pepper-2.jpg;true;5346,1635297948923,A,one,label1,vegetable,NULL
1635298008,09ed7ba5a58dbc877b5dab0758509ddf,12,0,experiment,NULL,PennController,12,_Trial_,End,1635297976721,A,one,label1,vegetable,NULL
1635298008,09ed7ba5a58dbc877b5dab0758509ddf,13,0,experiment,NULL,PennController,13,_Trial_,Start,1635297976723,A,three,label2,vehicle,NULL
1635298008,09ed7ba5a58dbc877b5dab0758509ddf,13,0,experiment,NULL,SelectionGrid,test-phase,Selections,contrast-van-1.jpg;contrast-van-2.jpg|contrast-van-1.jpg;true;3177:contrast-van-2.jpg;true;4126,1635297976726,A,three,label2,vehicle,NULL
1635298008,09ed7ba5a58dbc877b5dab0758509ddf,13,0,experiment,NULL,PennController,13,_Trial_,End,1635298005763,A,three,label2,vehicle,NULL
# 13. window_size.
# 14. Comments.
1635298008,09ed7ba5a58dbc877b5dab0758509ddf,14,0,end,NULL,PennController,2,_Trial_,Start,1635298005765,1440x837,NULL
1635298008,09ed7ba5a58dbc877b5dab0758509ddf,14,0,end,NULL,PennController,2,_Trial_,End,1635298008808,1440x837,NULL
#
# Results on Wed, 27 Oct 2021 01:51:46 GMT
# USER AGENT: Mozilla/5.0 (Macintosh; Intel Mac OS X 10_15_7) AppleWebKit/537.36 (KHTML, like Gecko) Chrome/94.0.4606.81 Safari/537.36
# Design number was non-random = 9
#
# Columns below this comment are as follows:
# 1. Results reception time.
# 2. MD5 hash of participant's IP address.
# 3. Controller name.
# 4. Order number of item.
# 5. Inner element number.
# 6. Label.
# 7. Latin Square Group.
# 8. PennElementType.
# 9. PennElementName.
# 10. Parameter.
# 11. Value.
# 12. EventTime.
# 13. ID.
# 14. Comments.
1635299506,c885fc505bf5fe4ece1f401bf9f50860,2,0,intro,NULL,PennController,0,_Trial_,Start,1635299220846,7830,NULL
1635299506,c885fc505bf5fe4ece1f401bf9f50860,2,0,intro,NULL,PennController,0,_Trial_,End,1635299226783,7830,NULL
# 13. Comments.
1635299506,c885fc505bf5fe4ece1f401bf9f50860,3,0,beginning,NULL,PennController,1,_Trial_,Start,1635299226788,NULL
1635299506,c885fc505bf5fe4ece1f401bf9f50860,3,0,beginning,NULL,PennController,1,_Trial_,End,1635299233069,NULL
# 13. group.
# 14. number.
# 15. target.
# 16. item.
# 17. Comments.
1635299506,c885fc505bf5fe4ece1f401bf9f50860,4,0,experiment,NULL,PennController,4,_Trial_,Start,1635299233073,B,one,label2,animal,NULL
1635299506,c885fc505bf5fe4ece1f401bf9f50860,4,0,experiment,NULL,SelectionGrid,test-phase,Selections,contrast-corgi-1.jpg;contrast-corgi-2.jpg;basic-dog-2.jpg|contrast-corgi-1.jpg;true;3129:contrast-corgi-2.jpg;true;3640:basic-dog-2.jpg;true;4360,1635299233076,B,one,label2,animal,NULL
1635299506,c885fc505bf5fe4ece1f401bf9f50860,4,0,experiment,NULL,PennController,4,_Trial_,End,1635299258552,B,one,label2,animal,NULL
1635299506,c885fc505bf5fe4ece1f401bf9f50860,5,0,experiment,NULL,PennController,5,_Trial_,Start,1635299258554,B,three,label1,beast,NULL
1635299506,c885fc505bf5fe4ece1f401bf9f50860,5,0,experiment,NULL,SelectionGrid,test-phase,Selections,sub-trex-2.jpg;sup-beast-2.jpg;sub-trex-1.jpg;basic-dinosaur-2.jpg;basic-dinosaur-3.jpg|sub-trex-2.jpg;true;3803:sup-beast-2.jpg;true;5364:sub-trex-1.jpg;true;5780:basic-dinosaur-2.jpg;true;6517:basic-dinosaur-3.jpg;true;7350,1635299258556,B,three,label1,beast,NULL
1635299506,c885fc505bf5fe4ece1f401bf9f50860,5,0,experiment,NULL,PennController,5,_Trial_,End,1635299287566,B,three,label1,beast,NULL
1635299506,c885fc505bf5fe4ece1f401bf9f50860,6,0,experiment,NULL,PennController,6,_Trial_,Start,1635299287568,B,one,label2,electronics,NULL
1635299506,c885fc505bf5fe4ece1f401bf9f50860,6,0,experiment,NULL,SelectionGrid,test-phase,Selections,contrast-flip_phone-1.jpg;contrast-flip_phone-2.jpg|basic-phone-2.jpg;true;6927:basic-phone-3.jpg;true;7999:contrast-flip_phone-1.jpg;true;9042:contrast-flip_phone-2.jpg;true;11665:basic-phone-2.jpg;false;17530:basic-phone-3.jpg;false;17954,1635299287573,B,one,label2,electronics,NULL
1635299506,c885fc505bf5fe4ece1f401bf9f50860,6,0,experiment,NULL,PennController,6,_Trial_,End,1635299325818,B,one,label2,electronics,NULL
1635299506,c885fc505bf5fe4ece1f401bf9f50860,7,0,experiment,NULL,PennController,7,_Trial_,Start,1635299325820,B,one,label1,Filler-Color-red,NULL
1635299506,c885fc505bf5fe4ece1f401bf9f50860,7,0,experiment,NULL,SelectionGrid,test-phase,Selections,red-rect.jpg|red-rect.jpg;true;2026:red-rect.jpg;true;2410:red-rect.jpg;true;3026:red-rect.jpg;true;3689:red-rect.jpg;true;4066:red-rect.jpg;true;4619,1635299325825,B,one,label1,Filler-Color-red,NULL
1635299506,c885fc505bf5fe4ece1f401bf9f50860,7,0,experiment,NULL,PennController,7,_Trial_,End,1635299344541,B,one,label1,Filler-Color-red,NULL
1635299506,c885fc505bf5fe4ece1f401bf9f50860,8,0,experiment,NULL,PennController,8,_Trial_,Start,1635299344542,B,three,label1,fruit,NULL
1635299506,c885fc505bf5fe4ece1f401bf9f50860,8,0,experiment,NULL,SelectionGrid,test-phase,Selections,sub-red_apple-1.jpg;sub-red_apple-2.jpg|sub-red_apple-1.jpg;true;2160:sub-red_apple-2.jpg;true;3153,1635299344547,B,three,label1,fruit,NULL
1635299506,c885fc505bf5fe4ece1f401bf9f50860,8,0,experiment,NULL,PennController,8,_Trial_,End,1635299367788,B,three,label1,fruit,NULL
1635299506,c885fc505bf5fe4ece1f401bf9f50860,9,0,experiment,NULL,PennController,9,_Trial_,Start,1635299367789,B,one,label2,furniture,NULL
1635299506,c885fc505bf5fe4ece1f401bf9f50860,9,0,experiment,NULL,SelectionGrid,test-phase,Selections,contrast-office_chair-2.jpg;contrast-office_chair-1.jpg|basic-chair-1.jpg;true;2867:contrast-office_chair-2.jpg;true;3724:contrast-office_chair-1.jpg;true;4756:basic-chair-1.jpg;false;8214,1635299367795,B,one,label2,furniture,NULL
1635299506,c885fc505bf5fe4ece1f401bf9f50860,9,0,experiment,NULL,PennController,9,_Trial_,End,1635299397499,B,one,label2,furniture,NULL
1635299506,c885fc505bf5fe4ece1f401bf9f50860,10,0,experiment,NULL,PennController,10,_Trial_,Start,1635299397501,B,three,label1,light,NULL
1635299506,c885fc505bf5fe4ece1f401bf9f50860,10,0,experiment,NULL,SelectionGrid,test-phase,Selections,sub-gooseneck_lamp-1.jpg;sub-gooseneck_lamp-2.jpg|sub-gooseneck_lamp-1.jpg;true;1799:sub-gooseneck_lamp-2.jpg;true;2471,1635299397505,B,three,label1,light,NULL
1635299506,c885fc505bf5fe4ece1f401bf9f50860,10,0,experiment,NULL,PennController,10,_Trial_,End,1635299424871,B,three,label1,light,NULL
1635299506,c885fc505bf5fe4ece1f401bf9f50860,11,0,experiment,NULL,PennController,11,_Trial_,Start,1635299424872,B,one,label1,Filler-Shape-triangle,NULL
1635299506,c885fc505bf5fe4ece1f401bf9f50860,11,0,experiment,NULL,SelectionGrid,test-phase,Selections,triangle-1.jpg;triangle-2.jpg;triangle-3.jpg;triangle-5.jpg;triangle-4.jpg|triangle-1.jpg;true;3174:triangle-2.jpg;true;7027:triangle-3.jpg;true;8225:triangle-5.jpg;true;11836:triangle-4.jpg;true;12813:triangle-4.jpg;false;13805:triangle-4.jpg;true;17319,1635299424876,B,one,label1,Filler-Shape-triangle,NULL
1635299506,c885fc505bf5fe4ece1f401bf9f50860,11,0,experiment,NULL,PennController,11,_Trial_,End,1635299454980,B,one,label1,Filler-Shape-triangle,NULL
1635299506,c885fc505bf5fe4ece1f401bf9f50860,12,0,experiment,NULL,PennController,12,_Trial_,Start,1635299454981,B,one,label2,vegetable,NULL
1635299506,c885fc505bf5fe4ece1f401bf9f50860,12,0,experiment,NULL,SelectionGrid,test-phase,Selections,contrast-red_pepper-1.jpg;contrast-red_pepper-2.jpg|contrast-red_pepper-1.jpg;true;1655:contrast-red_pepper-2.jpg;true;2488,1635299454986,B,one,label2,vegetable,NULL
1635299506,c885fc505bf5fe4ece1f401bf9f50860,12,0,experiment,NULL,PennController,12,_Trial_,End,1635299478494,B,one,label2,vegetable,NULL
1635299506,c885fc505bf5fe4ece1f401bf9f50860,13,0,experiment,NULL,PennController,13,_Trial_,Start,1635299478496,B,three,label1,vehicle,NULL
1635299506,c885fc505bf5fe4ece1f401bf9f50860,13,0,experiment,NULL,SelectionGrid,test-phase,Selections,sub-racecar-2.jpg;sub-racecar-1.jpg|sub-racecar-2.jpg;true;1828:sub-racecar-1.jpg;true;3780,1635299478500,B,three,label1,vehicle,NULL
1635299506,c885fc505bf5fe4ece1f401bf9f50860,13,0,experiment,NULL,PennController,13,_Trial_,End,1635299503977,B,three,label1,vehicle,NULL
# 13. window_size.
# 14. Comments.
1635299506,c885fc505bf5fe4ece1f401bf9f50860,14,0,end,NULL,PennController,2,_Trial_,Start,1635299503978,956x711,NULL
1635299506,c885fc505bf5fe4ece1f401bf9f50860,14,0,end,NULL,PennController,2,_Trial_,End,1635299505535,956x711,NULL
#
# Results on Wed, 27 Oct 2021 01:52:23 GMT
# USER AGENT: Mozilla/5.0 (Macintosh; Intel Mac OS X 10_15_7) AppleWebKit/537.36 (KHTML, like Gecko) Chrome/94.0.4606.81 Safari/537.36
# Design number was non-random = 10
#
# Columns below this comment are as follows:
# 1. Results reception time.
# 2. MD5 hash of participant's IP address.
# 3. Controller name.
# 4. Order number of item.
# 5. Inner element number.
# 6. Label.
# 7. Latin Square Group.
# 8. PennElementType.
# 9. PennElementName.
# 10. Parameter.
# 11. Value.
# 12. EventTime.
# 13. ID.
# 14. Comments.
1635299543,8eb1f4bfd9948342f2d2ae1d10b2a4eb,2,0,intro,NULL,PennController,0,_Trial_,Start,1635299289535,9835,NULL
1635299543,8eb1f4bfd9948342f2d2ae1d10b2a4eb,2,0,intro,NULL,PennController,0,_Trial_,End,1635299291475,9835,NULL
# 13. Comments.
1635299543,8eb1f4bfd9948342f2d2ae1d10b2a4eb,3,0,beginning,NULL,PennController,1,_Trial_,Start,1635299291478,NULL
1635299543,8eb1f4bfd9948342f2d2ae1d10b2a4eb,3,0,beginning,NULL,PennController,1,_Trial_,End,1635299302055,NULL
# 13. group.
# 14. number.
# 15. target.
# 16. item.
# 17. Comments.
1635299543,8eb1f4bfd9948342f2d2ae1d10b2a4eb,4,0,experiment,NULL,PennController,4,_Trial_,Start,1635299302056,C,three,label1,animal,NULL
1635299543,8eb1f4bfd9948342f2d2ae1d10b2a4eb,4,0,experiment,NULL,SelectionGrid,test-phase,Selections,sub-dalmatian-1.jpg;sub-dalmatian-2.jpg|sub-dalmatian-1.jpg;true;2854:sub-dalmatian-2.jpg;true;3321,1635299302060,C,three,label1,animal,NULL
1635299543,8eb1f4bfd9948342f2d2ae1d10b2a4eb,4,0,experiment,NULL,PennController,4,_Trial_,End,1635299325420,C,three,label1,animal,NULL
1635299543,8eb1f4bfd9948342f2d2ae1d10b2a4eb,5,0,experiment,NULL,PennController,5,_Trial_,Start,1635299325421,C,one,label2,beast,NULL
1635299543,8eb1f4bfd9948342f2d2ae1d10b2a4eb,5,0,experiment,NULL,SelectionGrid,test-phase,Selections,contrast-triceratops-1.jpg;contrast-triceratops-2.jpg|contrast-triceratops-1.jpg;true;3542:contrast-triceratops-2.jpg;true;4529,1635299325424,C,one,label2,beast,NULL
1635299543,8eb1f4bfd9948342f2d2ae1d10b2a4eb,5,0,experiment,NULL,PennController,5,_Trial_,End,1635299350529,C,one,label2,beast,NULL
1635299543,8eb1f4bfd9948342f2d2ae1d10b2a4eb,6,0,experiment,NULL,PennController,6,_Trial_,Start,1635299350530,C,three,label1,electronics,NULL
1635299543,8eb1f4bfd9948342f2d2ae1d10b2a4eb,6,0,experiment,NULL,SelectionGrid,test-phase,Selections,sub-smart_phone-2.jpg;sub-smart_phone-1.jpg|sub-smart_phone-2.jpg;true;2594:sub-smart_phone-1.jpg;true;4598,1635299350534,C,three,label1,electronics,NULL
1635299543,8eb1f4bfd9948342f2d2ae1d10b2a4eb,6,0,experiment,NULL,PennController,6,_Trial_,End,1635299376415,C,three,label1,electronics,NULL
1635299543,8eb1f4bfd9948342f2d2ae1d10b2a4eb,7,0,experiment,NULL,PennController,7,_Trial_,Start,1635299376416,C,one,label1,Filler-Color-red,NULL
1635299543,8eb1f4bfd9948342f2d2ae1d10b2a4eb,7,0,experiment,NULL,SelectionGrid,test-phase,Selections,red-rect.jpg|red-rect.jpg;true;3316:red-rect.jpg;true;3786:red-rect.jpg;true;4554:red-rect.jpg;true;5394:red-rect.jpg;true;5733:red-rect.jpg;true;6331,1635299376421,C,one,label1,Filler-Color-red,NULL
1635299543,8eb1f4bfd9948342f2d2ae1d10b2a4eb,7,0,experiment,NULL,PennController,7,_Trial_,End,1635299395629,C,one,label1,Filler-Color-red,NULL
1635299543,8eb1f4bfd9948342f2d2ae1d10b2a4eb,8,0,experiment,NULL,PennController,8,_Trial_,Start,1635299395630,C,one,label2,fruit,NULL
1635299543,8eb1f4bfd9948342f2d2ae1d10b2a4eb,8,0,experiment,NULL,SelectionGrid,test-phase,Selections,contrast-green_apple-2.jpg;contrast-green_apple-1.jpg;basic-apple-1.jpg;basic-apple-2.jpg|contrast-green_apple-2.jpg;true;1795:contrast-green_apple-1.jpg;true;2401:basic-apple-1.jpg;true;3201:basic-apple-2.jpg;true;4041,1635299395633,C,one,label2,fruit,NULL
1635299543,8eb1f4bfd9948342f2d2ae1d10b2a4eb,8,0,experiment,NULL,PennController,8,_Trial_,End,1635299421722,C,one,label2,fruit,NULL
1635299543,8eb1f4bfd9948342f2d2ae1d10b2a4eb,9,0,experiment,NULL,PennController,9,_Trial_,Start,1635299421723,C,three,label1,furniture,NULL
1635299543,8eb1f4bfd9948342f2d2ae1d10b2a4eb,9,0,experiment,NULL,SelectionGrid,test-phase,Selections,sub-wooden_chair-1.jpg;sub-wooden_chair-2.jpg;basic-chair-3.jpg|sub-wooden_chair-1.jpg;true;5831:sub-wooden_chair-2.jpg;true;6526:basic-chair-3.jpg;true;8174:basic-chair-2.jpg;true;10348:basic-chair-2.jpg;false;10841,1635299421727,C,three,label1,furniture,NULL
1635299543,8eb1f4bfd9948342f2d2ae1d10b2a4eb,9,0,experiment,NULL,PennController,9,_Trial_,End,1635299453085,C,three,label1,furniture,NULL
1635299543,8eb1f4bfd9948342f2d2ae1d10b2a4eb,10,0,experiment,NULL,PennController,10,_Trial_,Start,1635299453087,C,one,label2,light,NULL
1635299543,8eb1f4bfd9948342f2d2ae1d10b2a4eb,10,0,experiment,NULL,SelectionGrid,test-phase,Selections,contrast-desk_lamp-1.jpg;contrast-desk_lamp-2.jpg|contrast-desk_lamp-1.jpg;true;1878:contrast-desk_lamp-2.jpg;true;2741,1635299453091,C,one,label2,light,NULL
1635299543,8eb1f4bfd9948342f2d2ae1d10b2a4eb,10,0,experiment,NULL,PennController,10,_Trial_,End,1635299477494,C,one,label2,light,NULL
1635299543,8eb1f4bfd9948342f2d2ae1d10b2a4eb,11,0,experiment,NULL,PennController,11,_Trial_,Start,1635299477495,C,one,label1,Filler-Shape-triangle,NULL
1635299543,8eb1f4bfd9948342f2d2ae1d10b2a4eb,11,0,experiment,NULL,SelectionGrid,test-phase,Selections,triangle-5.jpg;triangle-3.jpg;triangle-2.jpg;triangle-4.jpg;triangle-1.jpg|triangle-5.jpg;true;1602:triangle-3.jpg;true;1997:triangle-2.jpg;true;2337:triangle-4.jpg;true;2733:triangle-1.jpg;true;3121,1635299477498,C,one,label1,Filler-Shape-triangle,NULL
1635299543,8eb1f4bfd9948342f2d2ae1d10b2a4eb,11,0,experiment,NULL,PennController,11,_Trial_,End,1635299493676,C,one,label1,Filler-Shape-triangle,NULL
1635299543,8eb1f4bfd9948342f2d2ae1d10b2a4eb,12,0,experiment,NULL,PennController,12,_Trial_,Start,1635299493677,C,three,label1,vegetable,NULL
1635299543,8eb1f4bfd9948342f2d2ae1d10b2a4eb,12,0,experiment,NULL,SelectionGrid,test-phase,Selections,sub-green_pepper-1.jpg;sub-green_pepper-2.jpg|sub-green_pepper-1.jpg;true;1985:sub-green_pepper-2.jpg;true;3359,1635299493681,C,three,label1,vegetable,NULL
1635299543,8eb1f4bfd9948342f2d2ae1d10b2a4eb,12,0,experiment,NULL,PennController,12,_Trial_,End,1635299517661,C,three,label1,vegetable,NULL
1635299543,8eb1f4bfd9948342f2d2ae1d10b2a4eb,13,0,experiment,NULL,PennController,13,_Trial_,Start,1635299517662,C,one,label2,vehicle,NULL
1635299543,8eb1f4bfd9948342f2d2ae1d10b2a4eb,13,0,experiment,NULL,SelectionGrid,test-phase,Selections,contrast-van-1.jpg;contrast-van-2.jpg|contrast-van-1.jpg;true;2297:contrast-van-2.jpg;true;3184,1635299517666,C,one,label2,vehicle,NULL
1635299543,8eb1f4bfd9948342f2d2ae1d10b2a4eb,13,0,experiment,NULL,PennController,13,_Trial_,End,1635299541076,C,one,label2,vehicle,NULL
# 13. window_size.
# 14. Comments.
1635299543,8eb1f4bfd9948342f2d2ae1d10b2a4eb,14,0,end,NULL,PennController,2,_Trial_,Start,1635299541078,1792x1009,NULL
1635299543,8eb1f4bfd9948342f2d2ae1d10b2a4eb,14,0,end,NULL,PennController,2,_Trial_,End,1635299542974,1792x1009,NULL
#
# Results on Thu, 28 Oct 2021 18:05:39 GMT
# USER AGENT: Mozilla/5.0 (Macintosh; Intel Mac OS X 10_15_7) AppleWebKit/537.36 (KHTML, like Gecko) Chrome/95.0.4638.54 Safari/537.36
# Design number was non-random = 11
#
# Columns below this comment are as follows:
# 1. Results reception time.
# 2. MD5 hash of participant's IP address.
# 3. Controller name.
# 4. Order number of item.
# 5. Inner element number.
# 6. Label.
# 7. Latin Square Group.
# 8. PennElementType.
# 9. PennElementName.
# 10. Parameter.
# 11. Value.
# 12. EventTime.
# 13. ID.
# 14. Comments.
1635444339,6500222f60657361c9a6a41f1ebc4ac8,2,0,intro,NULL,PennController,0,_Trial_,Start,1635444030451,9646,NULL
1635444339,6500222f60657361c9a6a41f1ebc4ac8,2,0,intro,NULL,PennController,0,_Trial_,End,1635444044528,9646,NULL
# 13. Comments.
1635444339,6500222f60657361c9a6a41f1ebc4ac8,3,0,beginning,NULL,PennController,1,_Trial_,Start,1635444044534,NULL
1635444339,6500222f60657361c9a6a41f1ebc4ac8,3,0,beginning,NULL,PennController,1,_Trial_,End,1635444066522,NULL
# 13. group.
# 14. number.
# 15. target.
# 16. item.
# 17. Comments.
1635444339,6500222f60657361c9a6a41f1ebc4ac8,4,0,experiment,NULL,PennController,4,_Trial_,Start,1635444066523,D,three,label2,animal,NULL
1635444339,6500222f60657361c9a6a41f1ebc4ac8,4,0,experiment,NULL,SelectionGrid,test-phase,Selections,contrast-corgi-2.jpg|contrast-corgi-2.jpg;true;4249,1635444066530,D,three,label2,animal,NULL
1635444339,6500222f60657361c9a6a41f1ebc4ac8,4,0,experiment,NULL,PennController,4,_Trial_,End,1635444098192,D,three,label2,animal,NULL
1635444339,6500222f60657361c9a6a41f1ebc4ac8,5,0,experiment,NULL,PennController,5,_Trial_,Start,1635444098194,D,one,label1,beast,NULL
1635444339,6500222f60657361c9a6a41f1ebc4ac8,5,0,experiment,NULL,SelectionGrid,test-phase,Selections,sub-trex-1.jpg;sub-trex-2.jpg;basic-dinosaur-2.jpg|sub-trex-1.jpg;true;17313:sub-trex-2.jpg;true;21659:basic-dinosaur-2.jpg;true;23701,1635444098200,D,one,label1,beast,NULL
1635444339,6500222f60657361c9a6a41f1ebc4ac8,5,0,experiment,NULL,PennController,5,_Trial_,End,1635444146164,D,one,label1,beast,NULL
1635444339,6500222f60657361c9a6a41f1ebc4ac8,6,0,experiment,NULL,PennController,6,_Trial_,Start,1635444146167,D,three,label2,electronics,NULL
1635444339,6500222f60657361c9a6a41f1ebc4ac8,6,0,experiment,NULL,SelectionGrid,test-phase,Selections,contrast-flip_phone-1.jpg;contrast-flip_phone-2.jpg|contrast-flip_phone-1.jpg;true;2845:contrast-flip_phone-2.jpg;true;3377,1635444146173,D,three,label2,electronics,NULL
1635444339,6500222f60657361c9a6a41f1ebc4ac8,6,0,experiment,NULL,PennController,6,_Trial_,End,1635444175555,D,three,label2,electronics,NULL
1635444339,6500222f60657361c9a6a41f1ebc4ac8,7,0,experiment,NULL,PennController,7,_Trial_,Start,1635444175558,D,one,label1,Filler-Color-red,NULL
1635444339,6500222f60657361c9a6a41f1ebc4ac8,7,0,experiment,NULL,SelectionGrid,test-phase,Selections,red-rect.jpg|red-rect.jpg;true;2555:red-rect.jpg;true;2972:red-rect.jpg;true;3505:red-rect.jpg;true;4247:red-rect.jpg;true;5473:red-rect.jpg;true;5973,1635444175563,D,one,label1,Filler-Color-red,NULL
1635444339,6500222f60657361c9a6a41f1ebc4ac8,7,0,experiment,NULL,PennController,7,_Trial_,End,1635444194305,D,one,label1,Filler-Color-red,NULL
1635444339,6500222f60657361c9a6a41f1ebc4ac8,8,0,experiment,NULL,PennController,8,_Trial_,Start,1635444194307,D,one,label1,fruit,NULL
1635444339,6500222f60657361c9a6a41f1ebc4ac8,8,0,experiment,NULL,SelectionGrid,test-phase,Selections,sub-red_apple-1.jpg;sub-red_apple-2.jpg|sub-red_apple-1.jpg;true;2785:sub-red_apple-2.jpg;true;3517,1635444194312,D,one,label1,fruit,NULL
1635444339,6500222f60657361c9a6a41f1ebc4ac8,8,0,experiment,NULL,PennController,8,_Trial_,End,1635444219975,D,one,label1,fruit,NULL
1635444339,6500222f60657361c9a6a41f1ebc4ac8,9,0,experiment,NULL,PennController,9,_Trial_,Start,1635444219977,D,three,label2,furniture,NULL
1635444339,6500222f60657361c9a6a41f1ebc4ac8,9,0,experiment,NULL,SelectionGrid,test-phase,Selections,contrast-office_chair-1.jpg;contrast-office_chair-2.jpg|contrast-office_chair-1.jpg;true;2199:contrast-office_chair-2.jpg;true;2810,1635444219982,D,three,label2,furniture,NULL
1635444339,6500222f60657361c9a6a41f1ebc4ac8,9,0,experiment,NULL,PennController,9,_Trial_,End,1635444245801,D,three,label2,furniture,NULL
1635444339,6500222f60657361c9a6a41f1ebc4ac8,10,0,experiment,NULL,PennController,10,_Trial_,Start,1635444245802,D,one,label1,light,NULL
1635444339,6500222f60657361c9a6a41f1ebc4ac8,10,0,experiment,NULL,SelectionGrid,test-phase,Selections,sub-gooseneck_lamp-1.jpg;sub-gooseneck_lamp-2.jpg|sub-gooseneck_lamp-1.jpg;true;2084:sub-gooseneck_lamp-2.jpg;true;2767,1635444245805,D,one,label1,light,NULL
1635444339,6500222f60657361c9a6a41f1ebc4ac8,10,0,experiment,NULL,PennController,10,_Trial_,End,1635444270795,D,one,label1,light,NULL
1635444339,6500222f60657361c9a6a41f1ebc4ac8,11,0,experiment,NULL,PennController,11,_Trial_,Start,1635444270796,D,one,label1,Filler-Shape-triangle,NULL
1635444339,6500222f60657361c9a6a41f1ebc4ac8,11,0,experiment,NULL,SelectionGrid,test-phase,Selections,triangle-5.jpg;triangle-3.jpg;triangle-2.jpg;triangle-4.jpg;triangle-1.jpg|triangle-5.jpg;true;1648:triangle-3.jpg;true;2124:triangle-2.jpg;true;2584:triangle-4.jpg;true;3051:triangle-1.jpg;true;3454,1635444270800,D,one,label1,Filler-Shape-triangle,NULL
1635444339,6500222f60657361c9a6a41f1ebc4ac8,11,0,experiment,NULL,PennController,11,_Trial_,End,1635444287470,D,one,label1,Filler-Shape-triangle,NULL
1635444339,6500222f60657361c9a6a41f1ebc4ac8,12,0,experiment,NULL,PennController,12,_Trial_,Start,1635444287472,D,three,label2,vegetable,NULL
1635444339,6500222f60657361c9a6a41f1ebc4ac8,12,0,experiment,NULL,SelectionGrid,test-phase,Selections,contrast-red_pepper-2.jpg;contrast-red_pepper-1.jpg|contrast-red_pepper-2.jpg;true;2150:contrast-red_pepper-1.jpg;true;3181,1635444287477,D,three,label2,vegetable,NULL
1635444339,6500222f60657361c9a6a41f1ebc4ac8,12,0,experiment,NULL,PennController,12,_Trial_,End,1635444311389,D,three,label2,vegetable,NULL
1635444339,6500222f60657361c9a6a41f1ebc4ac8,13,0,experiment,NULL,PennController,13,_Trial_,Start,1635444311390,D,one,label1,vehicle,NULL
1635444339,6500222f60657361c9a6a41f1ebc4ac8,13,0,experiment,NULL,SelectionGrid,test-phase,Selections,sub-racecar-2.jpg;sub-racecar-1.jpg|sub-racecar-2.jpg;true;4109:sub-racecar-1.jpg;true;5053,1635444311395,D,one,label1,vehicle,NULL
1635444339,6500222f60657361c9a6a41f1ebc4ac8,13,0,experiment,NULL,PennController,13,_Trial_,End,1635444337335,D,one,label1,vehicle,NULL
# 13. window_size.
# 14. Comments.
1635444339,6500222f60657361c9a6a41f1ebc4ac8,14,0,end,NULL,PennController,2,_Trial_,Start,1635444337337,1440x789,NULL
1635444339,6500222f60657361c9a6a41f1ebc4ac8,14,0,end,NULL,PennController,2,_Trial_,End,1635444339840,1440x789,NULL
#
# Results on Thu, 28 Oct 2021 20:24:45 GMT
# USER AGENT: Mozilla/5.0 (Macintosh; Intel Mac OS X 10_15_7) AppleWebKit/537.36 (KHTML, like Gecko) Chrome/95.0.4638.54 Safari/537.36
# Design number was non-random = 12
#
# Columns below this comment are as follows:
# 1. Results reception time.
# 2. MD5 hash of participant's IP address.
# 3. Controller name.
# 4. Order number of item.
# 5. Inner element number.
# 6. Label.
# 7. Latin Square Group.
# 8. PennElementType.
# 9. PennElementName.
# 10. Parameter.
# 11. Value.
# 12. EventTime.
# 13. ID.
# 14. Comments.
1635452685,ce97b2e3bf5e5680d6e8fd36d34ee141,2,0,intro,NULL,PennController,0,_Trial_,Start,1635452425211,7588,NULL
1635452685,ce97b2e3bf5e5680d6e8fd36d34ee141,2,0,intro,NULL,PennController,0,_Trial_,End,1635452431803,7588,NULL
# 13. Comments.
1635452685,ce97b2e3bf5e5680d6e8fd36d34ee141,3,0,beginning,NULL,PennController,1,_Trial_,Start,1635452431810,NULL
1635452685,ce97b2e3bf5e5680d6e8fd36d34ee141,3,0,beginning,NULL,PennController,1,_Trial_,End,1635452444549,NULL
# 13. group.
# 14. number.
# 15. target.
# 16. item.
# 17. Comments.
1635452685,ce97b2e3bf5e5680d6e8fd36d34ee141,4,0,experiment,NULL,PennController,4,_Trial_,Start,1635452444552,A,one,label1,animal,NULL
1635452685,ce97b2e3bf5e5680d6e8fd36d34ee141,4,0,experiment,NULL,SelectionGrid,test-phase,Selections,sub-dalmatian-1.jpg;sub-dalmatian-2.jpg|sub-dalmatian-1.jpg;true;5263:sub-dalmatian-2.jpg;true;6668,1635452444558,A,one,label1,animal,NULL
1635452685,ce97b2e3bf5e5680d6e8fd36d34ee141,4,0,experiment,NULL,PennController,4,_Trial_,End,1635452471605,A,one,label1,animal,NULL
1635452685,ce97b2e3bf5e5680d6e8fd36d34ee141,5,0,experiment,NULL,PennController,5,_Trial_,Start,1635452471607,A,three,label2,beast,NULL
1635452685,ce97b2e3bf5e5680d6e8fd36d34ee141,5,0,experiment,NULL,SelectionGrid,test-phase,Selections,contrast-triceratops-2.jpg|contrast-triceratops-2.jpg;true;4679,1635452471611,A,three,label2,beast,NULL
1635452685,ce97b2e3bf5e5680d6e8fd36d34ee141,5,0,experiment,NULL,PennController,5,_Trial_,End,1635452503040,A,three,label2,beast,NULL
1635452685,ce97b2e3bf5e5680d6e8fd36d34ee141,6,0,experiment,NULL,PennController,6,_Trial_,Start,1635452503044,A,one,label1,electronics,NULL
1635452685,ce97b2e3bf5e5680d6e8fd36d34ee141,6,0,experiment,NULL,SelectionGrid,test-phase,Selections,sub-smart_phone-2.jpg;sub-smart_phone-1.jpg|sub-smart_phone-2.jpg;true;3100:sub-smart_phone-1.jpg;true;4124,1635452503050,A,one,label1,electronics,NULL
1635452685,ce97b2e3bf5e5680d6e8fd36d34ee141,6,0,experiment,NULL,PennController,6,_Trial_,End,1635452528862,A,one,label1,electronics,NULL
1635452685,ce97b2e3bf5e5680d6e8fd36d34ee141,7,0,experiment,NULL,PennController,7,_Trial_,Start,1635452528866,A,one,label1,Filler-Color-red,NULL
1635452685,ce97b2e3bf5e5680d6e8fd36d34ee141,7,0,experiment,NULL,SelectionGrid,test-phase,Selections,red-rect.jpg|red-rect.jpg;true;1950:red-rect.jpg;true;2638:red-rect.jpg;true;3021:red-rect.jpg;true;3766:red-rect.jpg;true;4238:red-rect.jpg;true;4608,1635452528870,A,one,label1,Filler-Color-red,NULL
1635452685,ce97b2e3bf5e5680d6e8fd36d34ee141,7,0,experiment,NULL,PennController,7,_Trial_,End,1635452546294,A,one,label1,Filler-Color-red,NULL
1635452685,ce97b2e3bf5e5680d6e8fd36d34ee141,8,0,experiment,NULL,PennController,8,_Trial_,Start,1635452546297,A,three,label2,fruit,NULL
1635452685,ce97b2e3bf5e5680d6e8fd36d34ee141,8,0,experiment,NULL,SelectionGrid,test-phase,Selections,contrast-green_apple-2.jpg;contrast-green_apple-1.jpg|contrast-green_apple-2.jpg;true;2040:contrast-green_apple-1.jpg;true;2864,1635452546302,A,three,label2,fruit,NULL
1635452685,ce97b2e3bf5e5680d6e8fd36d34ee141,8,0,experiment,NULL,PennController,8,_Trial_,End,1635452570364,A,three,label2,fruit,NULL
1635452685,ce97b2e3bf5e5680d6e8fd36d34ee141,9,0,experiment,NULL,PennController,9,_Trial_,Start,1635452570367,A,one,label1,furniture,NULL
1635452685,ce97b2e3bf5e5680d6e8fd36d34ee141,9,0,experiment,NULL,SelectionGrid,test-phase,Selections,sub-wooden_chair-2.jpg;sub-wooden_chair-1.jpg|sub-wooden_chair-2.jpg;true;1835:basic-chair-3.jpg;true;2852:sub-wooden_chair-1.jpg;true;3885:basic-chair-3.jpg;false;5044,1635452570373,A,one,label1,furniture,NULL
1635452685,ce97b2e3bf5e5680d6e8fd36d34ee141,9,0,experiment,NULL,PennController,9,_Trial_,End,1635452595646,A,one,label1,furniture,NULL
1635452685,ce97b2e3bf5e5680d6e8fd36d34ee141,10,0,experiment,NULL,PennController,10,_Trial_,Start,1635452595650,A,three,label2,light,NULL
1635452685,ce97b2e3bf5e5680d6e8fd36d34ee141,10,0,experiment,NULL,SelectionGrid,test-phase,Selections,contrast-desk_lamp-2.jpg;contrast-desk_lamp-1.jpg|contrast-desk_lamp-2.jpg;true;2188:contrast-desk_lamp-1.jpg;true;3188,1635452595656,A,three,label2,light,NULL
1635452685,ce97b2e3bf5e5680d6e8fd36d34ee141,10,0,experiment,NULL,PennController,10,_Trial_,End,1635452619153,A,three,label2,light,NULL
1635452685,ce97b2e3bf5e5680d6e8fd36d34ee141,11,0,experiment,NULL,PennController,11,_Trial_,Start,1635452619156,A,one,label1,Filler-Shape-triangle,NULL
1635452685,ce97b2e3bf5e5680d6e8fd36d34ee141,11,0,experiment,NULL,SelectionGrid,test-phase,Selections,triangle-5.jpg;triangle-3.jpg;triangle-2.jpg;triangle-4.jpg;triangle-1.jpg|triangle-5.jpg;true;2486:triangle-3.jpg;true;2846:triangle-2.jpg;true;3222:triangle-4.jpg;true;3621:triangle-1.jpg;true;3981,1635452619161,A,one,label1,Filler-Shape-triangle,NULL
1635452685,ce97b2e3bf5e5680d6e8fd36d34ee141,11,0,experiment,NULL,PennController,11,_Trial_,End,1635452635848,A,one,label1,Filler-Shape-triangle,NULL
1635452685,ce97b2e3bf5e5680d6e8fd36d34ee141,12,0,experiment,NULL,PennController,12,_Trial_,Start,1635452635851,A,one,label1,vegetable,NULL
1635452685,ce97b2e3bf5e5680d6e8fd36d34ee141,12,0,experiment,NULL,SelectionGrid,test-phase,Selections,sub-green_pepper-2.jpg;sub-green_pepper-1.jpg|sub-green_pepper-1.jpg;true;1920:sub-green_pepper-1.jpg;false;2457:sub-green_pepper-2.jpg;true;3281:sub-green_pepper-1.jpg;true;3967,1635452635856,A,one,label1,vegetable,NULL
1635452685,ce97b2e3bf5e5680d6e8fd36d34ee141,12,0,experiment,NULL,PennController,12,_Trial_,End,1635452660723,A,one,label1,vegetable,NULL
1635452685,ce97b2e3bf5e5680d6e8fd36d34ee141,13,0,experiment,NULL,PennController,13,_Trial_,Start,1635452660726,A,three,label2,vehicle,NULL
1635452685,ce97b2e3bf5e5680d6e8fd36d34ee141,13,0,experiment,NULL,SelectionGrid,test-phase,Selections,contrast-van-1.jpg;contrast-van-2.jpg|contrast-van-1.jpg;true;2258:contrast-van-2.jpg;true;3058,1635452660732,A,three,label2,vehicle,NULL
1635452685,ce97b2e3bf5e5680d6e8fd36d34ee141,13,0,experiment,NULL,PennController,13,_Trial_,End,1635452683833,A,three,label2,vehicle,NULL
# 13. window_size.
# 14. Comments.
1635452685,ce97b2e3bf5e5680d6e8fd36d34ee141,14,0,end,NULL,PennController,2,_Trial_,Start,1635452683836,1440x789,NULL
1635452685,ce97b2e3bf5e5680d6e8fd36d34ee141,14,0,end,NULL,PennController,2,_Trial_,End,1635452685327,1440x789,NULL