#
# Results on Tue, 09 Nov 2021 19:20:12 GMT
# USER AGENT: Mozilla/5.0 (Windows NT 10.0; Win64; x64) AppleWebKit/537.36 (KHTML, like Gecko) Chrome/95.0.4638.69 Safari/537.36
# Design number was non-random = 16
#
# Columns below this comment are as follows:
# 1. Results reception time.
# 2. MD5 hash of participant's IP address.
# 3. Controller name.
# 4. Order number of item.
# 5. Inner element number.
# 6. Label.
# 7. Latin Square Group.
# 8. PennElementType.
# 9. PennElementName.
# 10. Parameter.
# 11. Value.
# 12. EventTime.
# 13. Comments.
1636485612,a6e6fb653c160ed3f61c3f44d25da8f7,2,0,intro,NULL,PennController,0,_Trial_,Start,1636485348436,NULL
1636485612,a6e6fb653c160ed3f61c3f44d25da8f7,2,0,intro,NULL,PennController,0,_Trial_,End,1636485351176,NULL
1636485612,a6e6fb653c160ed3f61c3f44d25da8f7,3,0,beginning,NULL,PennController,1,_Trial_,Start,1636485351182,NULL
1636485612,a6e6fb653c160ed3f61c3f44d25da8f7,3,0,beginning,NULL,PennController,1,_Trial_,End,1636485355503,NULL
# 13. group.
# 14. number.
# 15. target.
# 16. item.
# 17. Comments.
1636485612,a6e6fb653c160ed3f61c3f44d25da8f7,4,0,experiment,NULL,PennController,4,_Trial_,Start,1636485355504,A,one,label1,animal,NULL
1636485612,a6e6fb653c160ed3f61c3f44d25da8f7,4,0,experiment,NULL,SelectionGrid,test-phase,Selections,sup-fruit-4.jpg|sup-fruit-4.jpg;true;5258,1636485355510,A,one,label1,animal,NULL
1636485612,a6e6fb653c160ed3f61c3f44d25da8f7,4,0,experiment,NULL,PennController,4,_Trial_,End,1636485380865,A,one,label1,animal,NULL
1636485612,a6e6fb653c160ed3f61c3f44d25da8f7,5,0,experiment,NULL,PennController,5,_Trial_,Start,1636485380866,A,three,label2,beast,NULL
1636485612,a6e6fb653c160ed3f61c3f44d25da8f7,5,0,experiment,NULL,SelectionGrid,test-phase,Selections,sup-planet-3.jpg|sup-planet-3.jpg;true;7740,1636485380869,A,three,label2,beast,NULL
1636485612,a6e6fb653c160ed3f61c3f44d25da8f7,5,0,experiment,NULL,PennController,5,_Trial_,End,1636485417900,A,three,label2,beast,NULL
1636485612,a6e6fb653c160ed3f61c3f44d25da8f7,6,0,experiment,NULL,PennController,6,_Trial_,Start,1636485417901,A,one,label2,electronics,NULL
1636485612,a6e6fb653c160ed3f61c3f44d25da8f7,6,0,experiment,NULL,SelectionGrid,test-phase,Selections,contrast-flip_phone-1.jpg|contrast-flip_phone-1.jpg;true;2939,1636485417904,A,one,label2,electronics,NULL
1636485612,a6e6fb653c160ed3f61c3f44d25da8f7,6,0,experiment,NULL,PennController,6,_Trial_,End,1636485440817,A,one,label2,electronics,NULL
1636485612,a6e6fb653c160ed3f61c3f44d25da8f7,7,0,experiment,NULL,PennController,7,_Trial_,Start,1636485440819,A,one,label1,Filler-Color-red,NULL
1636485612,a6e6fb653c160ed3f61c3f44d25da8f7,7,0,experiment,NULL,SelectionGrid,test-phase,Selections,red-rect.jpg|blue-rect.jpg;true;1574:red-rect.jpg;true;2860:blue-rect.jpg;false;5198,1636485440827,A,one,label1,Filler-Color-red,NULL
1636485612,a6e6fb653c160ed3f61c3f44d25da8f7,7,0,experiment,NULL,PennController,7,_Trial_,End,1636485459311,A,one,label1,Filler-Color-red,NULL
1636485612,a6e6fb653c160ed3f61c3f44d25da8f7,8,0,experiment,NULL,PennController,8,_Trial_,Start,1636485459312,A,three,label1,fruit,NULL
1636485612,a6e6fb653c160ed3f61c3f44d25da8f7,8,0,experiment,NULL,SelectionGrid,test-phase,Selections,sup-fruit-2.jpg|sup-fruit-2.jpg;true;1202,1636485459314,A,three,label1,fruit,NULL
1636485612,a6e6fb653c160ed3f61c3f44d25da8f7,8,0,experiment,NULL,PennController,8,_Trial_,End,1636485480773,A,three,label1,fruit,NULL
1636485612,a6e6fb653c160ed3f61c3f44d25da8f7,9,0,experiment,NULL,PennController,9,_Trial_,Start,1636485480774,A,one,label1,furniture,NULL
1636485612,a6e6fb653c160ed3f61c3f44d25da8f7,9,0,experiment,NULL,SelectionGrid,test-phase,Selections,sup-animal-4.jpg|sup-animal-4.jpg;true;1901,1636485480776,A,one,label1,furniture,NULL
1636485612,a6e6fb653c160ed3f61c3f44d25da8f7,9,0,experiment,NULL,PennController,9,_Trial_,End,1636485502649,A,one,label1,furniture,NULL
1636485612,a6e6fb653c160ed3f61c3f44d25da8f7,10,0,experiment,NULL,PennController,10,_Trial_,Start,1636485502650,A,three,label2,light,NULL
1636485612,a6e6fb653c160ed3f61c3f44d25da8f7,10,0,experiment,NULL,SelectionGrid,test-phase,Selections,sup-animal-5.jpg|sup-animal-5.jpg;true;4415,1636485502653,A,three,label2,light,NULL
1636485612,a6e6fb653c160ed3f61c3f44d25da8f7,10,0,experiment,NULL,PennController,10,_Trial_,End,1636485526870,A,three,label2,light,NULL
1636485612,a6e6fb653c160ed3f61c3f44d25da8f7,11,0,experiment,NULL,PennController,11,_Trial_,Start,1636485526872,A,one,label1,Filler-Shape-triangle,NULL
1636485612,a6e6fb653c160ed3f61c3f44d25da8f7,11,0,experiment,NULL,SelectionGrid,test-phase,Selections,lines-13.jpg|lines-13.jpg;true;13695,1636485526874,A,one,label1,Filler-Shape-triangle,NULL
1636485612,a6e6fb653c160ed3f61c3f44d25da8f7,11,0,experiment,NULL,PennController,11,_Trial_,End,1636485553413,A,one,label1,Filler-Shape-triangle,NULL
1636485612,a6e6fb653c160ed3f61c3f44d25da8f7,12,0,experiment,NULL,PennController,12,_Trial_,Start,1636485553413,A,one,label2,vegetable,NULL
1636485612,a6e6fb653c160ed3f61c3f44d25da8f7,12,0,experiment,NULL,SelectionGrid,test-phase,Selections,contrast-red_pepper-1.jpg|contrast-red_pepper-1.jpg;true;3748,1636485553416,A,one,label2,vegetable,NULL
1636485612,a6e6fb653c160ed3f61c3f44d25da8f7,12,0,experiment,NULL,PennController,12,_Trial_,End,1636485577067,A,one,label2,vegetable,NULL
1636485612,a6e6fb653c160ed3f61c3f44d25da8f7,13,0,experiment,NULL,PennController,13,_Trial_,Start,1636485577068,A,three,label1,vehicle,NULL
1636485612,a6e6fb653c160ed3f61c3f44d25da8f7,13,0,experiment,NULL,SelectionGrid,test-phase,Selections,sup-vehicle-2.jpg|sup-vehicle-2.jpg;true;4042,1636485577073,A,three,label1,vehicle,NULL
1636485612,a6e6fb653c160ed3f61c3f44d25da8f7,13,0,experiment,NULL,PennController,13,_Trial_,End,1636485600920,A,three,label1,vehicle,NULL
# 13. window_size.
# 14. Comments.
1636485612,a6e6fb653c160ed3f61c3f44d25da8f7,14,0,end,NULL,PennController,2,_Trial_,Start,1636485600921,1680x907,NULL
1636485612,a6e6fb653c160ed3f61c3f44d25da8f7,14,0,end,NULL,PennController,2,_Trial_,End,1636485609176,1680x907,NULL
#
# Results on Tue, 09 Nov 2021 20:11:03 GMT
# USER AGENT: Mozilla/5.0 (Macintosh; Intel Mac OS X 10_15_2) AppleWebKit/537.36 (KHTML, like Gecko) Chrome/90.0.4430.85 Safari/537.36
# Design number was non-random = 20
#
# Columns below this comment are as follows:
# 1. Results reception time.
# 2. MD5 hash of participant's IP address.
# 3. Controller name.
# 4. Order number of item.
# 5. Inner element number.
# 6. Label.
# 7. Latin Square Group.
# 8. PennElementType.
# 9. PennElementName.
# 10. Parameter.
# 11. Value.
# 12. EventTime.
# 13. Comments.
1636488663,b653d2a47f17be3ad77e513f30dc45bf,2,0,intro,NULL,PennController,0,_Trial_,Start,1636488402629,NULL
1636488663,b653d2a47f17be3ad77e513f30dc45bf,2,0,intro,NULL,PennController,0,_Trial_,End,1636488406522,NULL
1636488663,b653d2a47f17be3ad77e513f30dc45bf,3,0,beginning,NULL,PennController,1,_Trial_,Start,1636488406538,NULL
1636488663,b653d2a47f17be3ad77e513f30dc45bf,3,0,beginning,NULL,PennController,1,_Trial_,End,1636488416279,NULL
# 13. group.
# 14. number.
# 15. target.
# 16. item.
# 17. Comments.
1636488663,b653d2a47f17be3ad77e513f30dc45bf,4,0,experiment,NULL,PennController,4,_Trial_,Start,1636488416280,A,one,label1,animal,NULL
1636488663,b653d2a47f17be3ad77e513f30dc45bf,4,0,experiment,NULL,SelectionGrid,test-phase,Selections,sub-dalmatian-1.jpg;sub-dalmatian-2.jpg|sub-dalmatian-1.jpg;true;4203:sub-dalmatian-2.jpg;true;4942,1636488416289,A,one,label1,animal,NULL
1636488663,b653d2a47f17be3ad77e513f30dc45bf,4,0,experiment,NULL,PennController,4,_Trial_,End,1636488441264,A,one,label1,animal,NULL
1636488663,b653d2a47f17be3ad77e513f30dc45bf,5,0,experiment,NULL,PennController,5,_Trial_,Start,1636488441267,A,three,label2,beast,NULL
1636488663,b653d2a47f17be3ad77e513f30dc45bf,5,0,experiment,NULL,SelectionGrid,test-phase,Selections,contrast-triceratops-2.jpg;contrast-triceratops-1.jpg|contrast-triceratops-2.jpg;true;4054:contrast-triceratops-1.jpg;true;6458,1636488441278,A,three,label2,beast,NULL
1636488663,b653d2a47f17be3ad77e513f30dc45bf,5,0,experiment,NULL,PennController,5,_Trial_,End,1636488468279,A,three,label2,beast,NULL
1636488663,b653d2a47f17be3ad77e513f30dc45bf,6,0,experiment,NULL,PennController,6,_Trial_,Start,1636488468280,A,one,label2,electronics,NULL
1636488663,b653d2a47f17be3ad77e513f30dc45bf,6,0,experiment,NULL,SelectionGrid,test-phase,Selections,contrast-flip_phone-1.jpg;contrast-flip_phone-2.jpg|contrast-flip_phone-1.jpg;true;5417:contrast-flip_phone-2.jpg;true;5770,1636488468285,A,one,label2,electronics,NULL
1636488663,b653d2a47f17be3ad77e513f30dc45bf,6,0,experiment,NULL,PennController,6,_Trial_,End,1636488494717,A,one,label2,electronics,NULL
1636488663,b653d2a47f17be3ad77e513f30dc45bf,7,0,experiment,NULL,PennController,7,_Trial_,Start,1636488494719,A,one,label1,Filler-Color-red,NULL
1636488663,b653d2a47f17be3ad77e513f30dc45bf,7,0,experiment,NULL,SelectionGrid,test-phase,Selections,red-rect.jpg|red-rect.jpg;true;2877:red-rect.jpg;true;3199:red-rect.jpg;true;3614:red-rect.jpg;true;4096:red-rect.jpg;true;4632:red-rect.jpg;true;4883,1636488494728,A,one,label1,Filler-Color-red,NULL
1636488663,b653d2a47f17be3ad77e513f30dc45bf,7,0,experiment,NULL,PennController,7,_Trial_,End,1636488512454,A,one,label1,Filler-Color-red,NULL
1636488663,b653d2a47f17be3ad77e513f30dc45bf,8,0,experiment,NULL,PennController,8,_Trial_,Start,1636488512455,A,three,label1,fruit,NULL
1636488663,b653d2a47f17be3ad77e513f30dc45bf,8,0,experiment,NULL,SelectionGrid,test-phase,Selections,sub-red_apple-1.jpg;sub-red_apple-2.jpg|sub-red_apple-1.jpg;true;3248:sup-animal-5.jpg;true;4061:sub-red_apple-2.jpg;true;5967:sup-animal-5.jpg;false;6769,1636488512460,A,three,label1,fruit,NULL
1636488663,b653d2a47f17be3ad77e513f30dc45bf,8,0,experiment,NULL,PennController,8,_Trial_,End,1636488539111,A,three,label1,fruit,NULL
1636488663,b653d2a47f17be3ad77e513f30dc45bf,9,0,experiment,NULL,PennController,9,_Trial_,Start,1636488539112,A,one,label1,furniture,NULL
1636488663,b653d2a47f17be3ad77e513f30dc45bf,9,0,experiment,NULL,SelectionGrid,test-phase,Selections,sub-wooden_chair-2.jpg;sub-wooden_chair-1.jpg|sub-wooden_chair-2.jpg;true;8357:sub-wooden_chair-1.jpg;true;9172,1636488539120,A,one,label1,furniture,NULL
1636488663,b653d2a47f17be3ad77e513f30dc45bf,9,0,experiment,NULL,PennController,9,_Trial_,End,1636488568770,A,one,label1,furniture,NULL
1636488663,b653d2a47f17be3ad77e513f30dc45bf,10,0,experiment,NULL,PennController,10,_Trial_,Start,1636488568772,A,three,label2,light,NULL
1636488663,b653d2a47f17be3ad77e513f30dc45bf,10,0,experiment,NULL,SelectionGrid,test-phase,Selections,contrast-desk_lamp-2.jpg;contrast-desk_lamp-1.jpg|contrast-desk_lamp-2.jpg;true;3684:contrast-desk_lamp-1.jpg;true;4597,1636488568775,A,three,label2,light,NULL
1636488663,b653d2a47f17be3ad77e513f30dc45bf,10,0,experiment,NULL,PennController,10,_Trial_,End,1636488593267,A,three,label2,light,NULL
1636488663,b653d2a47f17be3ad77e513f30dc45bf,11,0,experiment,NULL,PennController,11,_Trial_,Start,1636488593269,A,one,label1,Filler-Shape-triangle,NULL
1636488663,b653d2a47f17be3ad77e513f30dc45bf,11,0,experiment,NULL,SelectionGrid,test-phase,Selections,triangle-5.jpg;triangle-3.jpg;triangle-2.jpg;triangle-4.jpg;triangle-1.jpg|triangle-5.jpg;true;2646:triangle-3.jpg;true;2998:triangle-2.jpg;true;3334:triangle-4.jpg;true;3916:triangle-1.jpg;true;4521,1636488593275,A,one,label1,Filler-Shape-triangle,NULL
1636488663,b653d2a47f17be3ad77e513f30dc45bf,11,0,experiment,NULL,PennController,11,_Trial_,End,1636488610772,A,one,label1,Filler-Shape-triangle,NULL
1636488663,b653d2a47f17be3ad77e513f30dc45bf,12,0,experiment,NULL,PennController,12,_Trial_,Start,1636488610773,A,one,label2,vegetable,NULL
1636488663,b653d2a47f17be3ad77e513f30dc45bf,12,0,experiment,NULL,SelectionGrid,test-phase,Selections,contrast-red_pepper-2.jpg;contrast-red_pepper-1.jpg|contrast-red_pepper-2.jpg;true;4001:contrast-red_pepper-1.jpg;true;5298,1636488610777,A,one,label2,vegetable,NULL
1636488663,b653d2a47f17be3ad77e513f30dc45bf,12,0,experiment,NULL,PennController,12,_Trial_,End,1636488636535,A,one,label2,vegetable,NULL
1636488663,b653d2a47f17be3ad77e513f30dc45bf,13,0,experiment,NULL,PennController,13,_Trial_,Start,1636488636538,A,three,label1,vehicle,NULL
1636488663,b653d2a47f17be3ad77e513f30dc45bf,13,0,experiment,NULL,SelectionGrid,test-phase,Selections,sub-racecar-2.jpg|sub-racecar-2.jpg;true;4050,1636488636542,A,three,label1,vehicle,NULL
1636488663,b653d2a47f17be3ad77e513f30dc45bf,13,0,experiment,NULL,PennController,13,_Trial_,End,1636488662010,A,three,label1,vehicle,NULL
# 13. window_size.
# 14. Comments.
1636488663,b653d2a47f17be3ad77e513f30dc45bf,14,0,end,NULL,PennController,2,_Trial_,Start,1636488662011,1280x720,NULL
1636488663,b653d2a47f17be3ad77e513f30dc45bf,14,0,end,NULL,PennController,2,_Trial_,End,1636488663638,1280x720,NULL
#
# Results on Tue, 09 Nov 2021 20:11:10 GMT
# USER AGENT: Mozilla/5.0 (Windows NT 10.0; Win64; x64) AppleWebKit/537.36 (KHTML, like Gecko) Chrome/94.0.4606.114 Safari/537.36
# Design number was non-random = 19
#
# Columns below this comment are as follows:
# 1. Results reception time.
# 2. MD5 hash of participant's IP address.
# 3. Controller name.
# 4. Order number of item.
# 5. Inner element number.
# 6. Label.
# 7. Latin Square Group.
# 8. PennElementType.
# 9. PennElementName.
# 10. Parameter.
# 11. Value.
# 12. EventTime.
# 13. Comments.
1636488670,2f7434e748f5cd9f4832fd14a076b1cf,2,0,intro,NULL,PennController,0,_Trial_,Start,1636488393237,NULL
1636488670,2f7434e748f5cd9f4832fd14a076b1cf,2,0,intro,NULL,PennController,0,_Trial_,End,1636488398623,NULL
1636488670,2f7434e748f5cd9f4832fd14a076b1cf,3,0,beginning,NULL,PennController,1,_Trial_,Start,1636488398633,NULL
1636488670,2f7434e748f5cd9f4832fd14a076b1cf,3,0,beginning,NULL,PennController,1,_Trial_,End,1636488406571,NULL
# 13. group.
# 14. number.
# 15. target.
# 16. item.
# 17. Comments.
1636488670,2f7434e748f5cd9f4832fd14a076b1cf,4,0,experiment,NULL,PennController,4,_Trial_,Start,1636488406574,D,three,label2,animal,NULL
1636488670,2f7434e748f5cd9f4832fd14a076b1cf,4,0,experiment,NULL,SelectionGrid,test-phase,Selections,contrast-corgi-2.jpg;contrast-corgi-1.jpg|contrast-corgi-2.jpg;true;3581:contrast-corgi-1.jpg;true;8332,1636488406580,D,three,label2,animal,NULL
1636488670,2f7434e748f5cd9f4832fd14a076b1cf,4,0,experiment,NULL,PennController,4,_Trial_,End,1636488434854,D,three,label2,animal,NULL
1636488670,2f7434e748f5cd9f4832fd14a076b1cf,5,0,experiment,NULL,PennController,5,_Trial_,Start,1636488434855,D,one,label1,beast,NULL
1636488670,2f7434e748f5cd9f4832fd14a076b1cf,5,0,experiment,NULL,SelectionGrid,test-phase,Selections,sub-trex-1.jpg;sub-trex-2.jpg|sub-trex-1.jpg;true;4857:sub-trex-2.jpg;true;6728,1636488434860,D,one,label1,beast,NULL
1636488670,2f7434e748f5cd9f4832fd14a076b1cf,5,0,experiment,NULL,PennController,5,_Trial_,End,1636488469851,D,one,label1,beast,NULL
1636488670,2f7434e748f5cd9f4832fd14a076b1cf,6,0,experiment,NULL,PennController,6,_Trial_,Start,1636488469854,D,three,label1,electronics,NULL
1636488670,2f7434e748f5cd9f4832fd14a076b1cf,6,0,experiment,NULL,SelectionGrid,test-phase,Selections,sub-smart_phone-2.jpg;sub-smart_phone-1.jpg|sub-smart_phone-2.jpg;true;3683:sub-smart_phone-1.jpg;true;5603,1636488469858,D,three,label1,electronics,NULL
1636488670,2f7434e748f5cd9f4832fd14a076b1cf,6,0,experiment,NULL,PennController,6,_Trial_,End,1636488497107,D,three,label1,electronics,NULL
1636488670,2f7434e748f5cd9f4832fd14a076b1cf,7,0,experiment,NULL,PennController,7,_Trial_,Start,1636488497110,D,one,label1,Filler-Color-red,NULL
1636488670,2f7434e748f5cd9f4832fd14a076b1cf,7,0,experiment,NULL,SelectionGrid,test-phase,Selections,red-rect.jpg|red-rect.jpg;true;1710:red-rect.jpg;true;2134:red-rect.jpg;true;2582:red-rect.jpg;true;3280:red-rect.jpg;true;3590:red-rect.jpg;true;3991,1636488497114,D,one,label1,Filler-Color-red,NULL
1636488670,2f7434e748f5cd9f4832fd14a076b1cf,7,0,experiment,NULL,PennController,7,_Trial_,End,1636488514159,D,one,label1,Filler-Color-red,NULL
1636488670,2f7434e748f5cd9f4832fd14a076b1cf,8,0,experiment,NULL,PennController,8,_Trial_,Start,1636488514161,D,one,label2,fruit,NULL
1636488670,2f7434e748f5cd9f4832fd14a076b1cf,8,0,experiment,NULL,SelectionGrid,test-phase,Selections,contrast-green_apple-1.jpg;contrast-green_apple-2.jpg;basic-apple-1.jpg;basic-apple-2.jpg|contrast-green_apple-1.jpg;true;2417:contrast-green_apple-2.jpg;true;3001:basic-apple-1.jpg;true;3680:basic-apple-2.jpg;true;4545,1636488514167,D,one,label2,fruit,NULL
1636488670,2f7434e748f5cd9f4832fd14a076b1cf,8,0,experiment,NULL,PennController,8,_Trial_,End,1636488539034,D,one,label2,fruit,NULL
1636488670,2f7434e748f5cd9f4832fd14a076b1cf,9,0,experiment,NULL,PennController,9,_Trial_,Start,1636488539035,D,three,label2,furniture,NULL
1636488670,2f7434e748f5cd9f4832fd14a076b1cf,9,0,experiment,NULL,SelectionGrid,test-phase,Selections,contrast-office_chair-1.jpg;contrast-office_chair-2.jpg|contrast-office_chair-1.jpg;true;2703:contrast-office_chair-2.jpg;true;3591,1636488539040,D,three,label2,furniture,NULL
1636488670,2f7434e748f5cd9f4832fd14a076b1cf,9,0,experiment,NULL,PennController,9,_Trial_,End,1636488564970,D,three,label2,furniture,NULL
1636488670,2f7434e748f5cd9f4832fd14a076b1cf,10,0,experiment,NULL,PennController,10,_Trial_,Start,1636488564972,D,one,label1,light,NULL
1636488670,2f7434e748f5cd9f4832fd14a076b1cf,10,0,experiment,NULL,SelectionGrid,test-phase,Selections,sub-gooseneck_lamp-2.jpg;sub-gooseneck_lamp-1.jpg|sub-gooseneck_lamp-2.jpg;true;2209:sub-gooseneck_lamp-1.jpg;true;2897,1636488564977,D,one,label1,light,NULL
1636488670,2f7434e748f5cd9f4832fd14a076b1cf,10,0,experiment,NULL,PennController,10,_Trial_,End,1636488589659,D,one,label1,light,NULL
1636488670,2f7434e748f5cd9f4832fd14a076b1cf,11,0,experiment,NULL,PennController,11,_Trial_,Start,1636488589661,D,one,label1,Filler-Shape-triangle,NULL
1636488670,2f7434e748f5cd9f4832fd14a076b1cf,11,0,experiment,NULL,SelectionGrid,test-phase,Selections,triangle-5.jpg;triangle-3.jpg;triangle-2.jpg;triangle-4.jpg;triangle-1.jpg|triangle-5.jpg;true;1489:triangle-3.jpg;true;1881:triangle-2.jpg;true;2241:triangle-4.jpg;true;2761:triangle-1.jpg;true;3337,1636488589665,D,one,label1,Filler-Shape-triangle,NULL
1636488670,2f7434e748f5cd9f4832fd14a076b1cf,11,0,experiment,NULL,PennController,11,_Trial_,End,1636488605771,D,one,label1,Filler-Shape-triangle,NULL
1636488670,2f7434e748f5cd9f4832fd14a076b1cf,12,0,experiment,NULL,PennController,12,_Trial_,Start,1636488605773,D,three,label1,vegetable,NULL
1636488670,2f7434e748f5cd9f4832fd14a076b1cf,12,0,experiment,NULL,SelectionGrid,test-phase,Selections,sub-green_pepper-1.jpg;sub-green_pepper-2.jpg|sub-green_pepper-1.jpg;true;2328:sub-green_pepper-2.jpg;true;3623,1636488605777,D,three,label1,vegetable,NULL
1636488670,2f7434e748f5cd9f4832fd14a076b1cf,12,0,experiment,NULL,PennController,12,_Trial_,End,1636488630857,D,three,label1,vegetable,NULL
1636488670,2f7434e748f5cd9f4832fd14a076b1cf,13,0,experiment,NULL,PennController,13,_Trial_,Start,1636488630859,D,one,label2,vehicle,NULL
1636488670,2f7434e748f5cd9f4832fd14a076b1cf,13,0,experiment,NULL,SelectionGrid,test-phase,Selections,contrast-van-2.jpg;contrast-van-1.jpg|contrast-van-2.jpg;true;10050:contrast-van-1.jpg;true;10921,1636488630864,D,one,label2,vehicle,NULL
1636488670,2f7434e748f5cd9f4832fd14a076b1cf,13,0,experiment,NULL,PennController,13,_Trial_,End,1636488669328,D,one,label2,vehicle,NULL
# 13. window_size.
# 14. Comments.
1636488670,2f7434e748f5cd9f4832fd14a076b1cf,14,0,end,NULL,PennController,2,_Trial_,Start,1636488669330,1358x687,NULL
1636488670,2f7434e748f5cd9f4832fd14a076b1cf,14,0,end,NULL,PennController,2,_Trial_,End,1636488670912,1358x687,NULL
#
# Results on Tue, 09 Nov 2021 20:18:44 GMT
# USER AGENT: Mozilla/5.0 (Windows NT 10.0; Win64; x64) AppleWebKit/537.36 (KHTML, like Gecko) Chrome/95.0.4638.69 Safari/537.36
# Design number was non-random = 21
#
# Columns below this comment are as follows:
# 1. Results reception time.
# 2. MD5 hash of participant's IP address.
# 3. Controller name.
# 4. Order number of item.
# 5. Inner element number.
# 6. Label.
# 7. Latin Square Group.
# 8. PennElementType.
# 9. PennElementName.
# 10. Parameter.
# 11. Value.
# 12. EventTime.
# 13. Comments.
1636489124,ee248a97b27ba43dc33086c5513f0a6a,2,0,intro,NULL,PennController,0,_Trial_,Start,1636488849407,NULL
1636489124,ee248a97b27ba43dc33086c5513f0a6a,2,0,intro,NULL,PennController,0,_Trial_,End,1636488852205,NULL
1636489124,ee248a97b27ba43dc33086c5513f0a6a,3,0,beginning,NULL,PennController,1,_Trial_,Start,1636488852222,NULL
1636489124,ee248a97b27ba43dc33086c5513f0a6a,3,0,beginning,NULL,PennController,1,_Trial_,End,1636488859955,NULL
# 13. group.
# 14. number.
# 15. target.
# 16. item.
# 17. Comments.
1636489124,ee248a97b27ba43dc33086c5513f0a6a,4,0,experiment,NULL,PennController,4,_Trial_,Start,1636488859960,B,one,label2,animal,NULL
1636489124,ee248a97b27ba43dc33086c5513f0a6a,4,0,experiment,NULL,SelectionGrid,test-phase,Selections,contrast-corgi-2.jpg;contrast-corgi-1.jpg|contrast-corgi-2.jpg;true;3513:contrast-corgi-1.jpg;true;4719,1636488859982,B,one,label2,animal,NULL
1636489124,ee248a97b27ba43dc33086c5513f0a6a,4,0,experiment,NULL,PennController,4,_Trial_,End,1636488887713,B,one,label2,animal,NULL
1636489124,ee248a97b27ba43dc33086c5513f0a6a,5,0,experiment,NULL,PennController,5,_Trial_,Start,1636488887719,B,three,label1,beast,NULL
1636489124,ee248a97b27ba43dc33086c5513f0a6a,5,0,experiment,NULL,SelectionGrid,test-phase,Selections,sub-trex-2.jpg;sub-trex-1.jpg|sub-trex-2.jpg;true;3515:sub-trex-1.jpg;true;4764,1636488887736,B,three,label1,beast,NULL
1636489124,ee248a97b27ba43dc33086c5513f0a6a,5,0,experiment,NULL,PennController,5,_Trial_,End,1636488915124,B,three,label1,beast,NULL
1636489124,ee248a97b27ba43dc33086c5513f0a6a,6,0,experiment,NULL,PennController,6,_Trial_,Start,1636488915132,B,one,label1,electronics,NULL
1636489124,ee248a97b27ba43dc33086c5513f0a6a,6,0,experiment,NULL,SelectionGrid,test-phase,Selections,sub-smart_phone-2.jpg;sub-smart_phone-1.jpg|sub-smart_phone-2.jpg;true;3666:sub-smart_phone-1.jpg;true;6731,1636488915140,B,one,label1,electronics,NULL
1636489124,ee248a97b27ba43dc33086c5513f0a6a,6,0,experiment,NULL,PennController,6,_Trial_,End,1636488943004,B,one,label1,electronics,NULL
1636489124,ee248a97b27ba43dc33086c5513f0a6a,7,0,experiment,NULL,PennController,7,_Trial_,Start,1636488943009,B,one,label1,Filler-Color-red,NULL
1636489124,ee248a97b27ba43dc33086c5513f0a6a,7,0,experiment,NULL,SelectionGrid,test-phase,Selections,red-rect.jpg|red-rect.jpg;true;1993:red-rect.jpg;true;2494:red-rect.jpg;true;3058:red-rect.jpg;true;3615:red-rect.jpg;true;4117:red-rect.jpg;true;4704,1636488943027,B,one,label1,Filler-Color-red,NULL
1636489124,ee248a97b27ba43dc33086c5513f0a6a,7,0,experiment,NULL,PennController,7,_Trial_,End,1636488960743,B,one,label1,Filler-Color-red,NULL
1636489124,ee248a97b27ba43dc33086c5513f0a6a,8,0,experiment,NULL,PennController,8,_Trial_,Start,1636488960750,B,three,label2,fruit,NULL
1636489124,ee248a97b27ba43dc33086c5513f0a6a,8,0,experiment,NULL,SelectionGrid,test-phase,Selections,contrast-green_apple-2.jpg;contrast-green_apple-1.jpg|contrast-green_apple-2.jpg;true;2374:contrast-green_apple-1.jpg;true;3753,1636488960764,B,three,label2,fruit,NULL
1636489124,ee248a97b27ba43dc33086c5513f0a6a,8,0,experiment,NULL,PennController,8,_Trial_,End,1636488985274,B,three,label2,fruit,NULL
1636489124,ee248a97b27ba43dc33086c5513f0a6a,9,0,experiment,NULL,PennController,9,_Trial_,Start,1636488985281,B,one,label2,furniture,NULL
1636489124,ee248a97b27ba43dc33086c5513f0a6a,9,0,experiment,NULL,SelectionGrid,test-phase,Selections,contrast-office_chair-1.jpg;contrast-office_chair-2.jpg|contrast-office_chair-1.jpg;true;2635:contrast-office_chair-2.jpg;true;3618,1636488985299,B,one,label2,furniture,NULL
1636489124,ee248a97b27ba43dc33086c5513f0a6a,9,0,experiment,NULL,PennController,9,_Trial_,End,1636489010152,B,one,label2,furniture,NULL
1636489124,ee248a97b27ba43dc33086c5513f0a6a,10,0,experiment,NULL,PennController,10,_Trial_,Start,1636489010157,B,three,label1,light,NULL
1636489124,ee248a97b27ba43dc33086c5513f0a6a,10,0,experiment,NULL,SelectionGrid,test-phase,Selections,sub-gooseneck_lamp-1.jpg;sub-gooseneck_lamp-2.jpg|sub-gooseneck_lamp-1.jpg;true;4045:sub-gooseneck_lamp-2.jpg;true;5088,1636489010175,B,three,label1,light,NULL
1636489124,ee248a97b27ba43dc33086c5513f0a6a,10,0,experiment,NULL,PennController,10,_Trial_,End,1636489038083,B,three,label1,light,NULL
1636489124,ee248a97b27ba43dc33086c5513f0a6a,11,0,experiment,NULL,PennController,11,_Trial_,Start,1636489038088,B,one,label1,Filler-Shape-triangle,NULL
1636489124,ee248a97b27ba43dc33086c5513f0a6a,11,0,experiment,NULL,SelectionGrid,test-phase,Selections,triangle-5.jpg;triangle-3.jpg;triangle-2.jpg;triangle-4.jpg;triangle-1.jpg|triangle-5.jpg;true;1990:triangle-3.jpg;true;2556:triangle-2.jpg;true;3053:triangle-4.jpg;true;3616:triangle-1.jpg;true;4308,1636489038109,B,one,label1,Filler-Shape-triangle,NULL
1636489124,ee248a97b27ba43dc33086c5513f0a6a,11,0,experiment,NULL,PennController,11,_Trial_,End,1636489056022,B,one,label1,Filler-Shape-triangle,NULL
1636489124,ee248a97b27ba43dc33086c5513f0a6a,12,0,experiment,NULL,PennController,12,_Trial_,Start,1636489056030,B,one,label1,vegetable,NULL
1636489124,ee248a97b27ba43dc33086c5513f0a6a,12,0,experiment,NULL,SelectionGrid,test-phase,Selections,contrast-red_pepper-2.jpg;basic-pepper-2.jpg;contrast-red_pepper-1.jpg;basic-pepper-1.jpg;basic-pepper-3.jpg|contrast-red_pepper-2.jpg;true;7549:basic-pepper-2.jpg;true;10554:contrast-red_pepper-1.jpg;true;11239:basic-pepper-1.jpg;true;11902:basic-pepper-3.jpg;true;13307,1636489056048,B,one,label1,vegetable,NULL
1636489124,ee248a97b27ba43dc33086c5513f0a6a,12,0,experiment,NULL,PennController,12,_Trial_,End,1636489090181,B,one,label1,vegetable,NULL
1636489124,ee248a97b27ba43dc33086c5513f0a6a,13,0,experiment,NULL,PennController,13,_Trial_,Start,1636489090186,B,three,label2,vehicle,NULL
1636489124,ee248a97b27ba43dc33086c5513f0a6a,13,0,experiment,NULL,SelectionGrid,test-phase,Selections,contrast-van-1.jpg;contrast-van-2.jpg|contrast-van-1.jpg;true;4880:contrast-van-2.jpg;true;5901,1636489090202,B,three,label2,vehicle,NULL
1636489124,ee248a97b27ba43dc33086c5513f0a6a,13,0,experiment,NULL,PennController,13,_Trial_,End,1636489117328,B,three,label2,vehicle,NULL
# 13. window_size.
# 14. Comments.
1636489124,ee248a97b27ba43dc33086c5513f0a6a,14,0,end,NULL,PennController,2,_Trial_,Start,1636489117331,1366x625,NULL
1636489124,ee248a97b27ba43dc33086c5513f0a6a,14,0,end,NULL,PennController,2,_Trial_,End,1636489118832,1366x625,NULL
#
# Results on Tue, 09 Nov 2021 21:23:13 GMT
# USER AGENT: Mozilla/5.0 (Windows NT 10.0; Win64; x64) AppleWebKit/537.36 (KHTML, like Gecko) Chrome/95.0.4638.69 Safari/537.36
# Design number was non-random = 22
#
# Columns below this comment are as follows:
# 1. Results reception time.
# 2. MD5 hash of participant's IP address.
# 3. Controller name.
# 4. Order number of item.
# 5. Inner element number.
# 6. Label.
# 7. Latin Square Group.
# 8. PennElementType.
# 9. PennElementName.
# 10. Parameter.
# 11. Value.
# 12. EventTime.
# 13. Comments.
1636492993,f55bee1394870aef9fd013d167b08d64,2,0,intro,NULL,PennController,0,_Trial_,Start,1636492660452,NULL
1636492993,f55bee1394870aef9fd013d167b08d64,2,0,intro,NULL,PennController,0,_Trial_,End,1636492663485,NULL
1636492993,f55bee1394870aef9fd013d167b08d64,3,0,beginning,NULL,PennController,1,_Trial_,Start,1636492663531,NULL
1636492993,f55bee1394870aef9fd013d167b08d64,3,0,beginning,NULL,PennController,1,_Trial_,End,1636492673610,NULL
# 13. group.
# 14. number.
# 15. target.
# 16. item.
# 17. Comments.
1636492993,f55bee1394870aef9fd013d167b08d64,4,0,experiment,NULL,PennController,4,_Trial_,Start,1636492673615,C,three,label1,animal,NULL
1636492993,f55bee1394870aef9fd013d167b08d64,4,0,experiment,NULL,SelectionGrid,test-phase,Selections,sub-dalmatian-1.jpg;sub-dalmatian-2.jpg|sub-dalmatian-1.jpg;true;4173:sub-dalmatian-2.jpg;true;5199,1636492673631,C,three,label1,animal,NULL
1636492993,f55bee1394870aef9fd013d167b08d64,4,0,experiment,NULL,PennController,4,_Trial_,End,1636492702052,C,three,label1,animal,NULL
1636492993,f55bee1394870aef9fd013d167b08d64,5,0,experiment,NULL,PennController,5,_Trial_,Start,1636492702058,C,one,label2,beast,NULL
1636492993,f55bee1394870aef9fd013d167b08d64,5,0,experiment,NULL,SelectionGrid,test-phase,Selections,contrast-triceratops-2.jpg;contrast-triceratops-1.jpg|contrast-triceratops-2.jpg;true;5322:contrast-triceratops-1.jpg;true;9004,1636492702069,C,one,label2,beast,NULL
1636492993,f55bee1394870aef9fd013d167b08d64,5,0,experiment,NULL,PennController,5,_Trial_,End,1636492732750,C,one,label2,beast,NULL
1636492993,f55bee1394870aef9fd013d167b08d64,6,0,experiment,NULL,PennController,6,_Trial_,Start,1636492732754,C,three,label2,electronics,NULL
1636492993,f55bee1394870aef9fd013d167b08d64,6,0,experiment,NULL,SelectionGrid,test-phase,Selections,contrast-flip_phone-2.jpg;contrast-flip_phone-1.jpg|contrast-flip_phone-2.jpg;true;3849:contrast-flip_phone-1.jpg;true;5379,1636492732765,C,three,label2,electronics,NULL
1636492993,f55bee1394870aef9fd013d167b08d64,6,0,experiment,NULL,PennController,6,_Trial_,End,1636492759313,C,three,label2,electronics,NULL
1636492993,f55bee1394870aef9fd013d167b08d64,7,0,experiment,NULL,PennController,7,_Trial_,Start,1636492759317,C,one,label1,Filler-Color-red,NULL
1636492993,f55bee1394870aef9fd013d167b08d64,7,0,experiment,NULL,SelectionGrid,test-phase,Selections,red-rect.jpg;blue-rect.jpg;green-rect.jpg|red-rect.jpg;true;3369:red-rect.jpg;true;4454:red-rect.jpg;true;5539:red-rect.jpg;true;7982:red-rect.jpg;true;11895:red-rect.jpg;true;12738:blue-rect.jpg;true;26873:blue-rect.jpg;true;27667:blue-rect.jpg;true;28375:green-rect.jpg;true;29256:blue-rect.jpg;true;29935:green-rect.jpg;true;30874:green-rect.jpg;true;31523:green-rect.jpg;true;32337:green-rect.jpg;true;33054:green-rect.jpg;true;33713:blue-rect.jpg;true;34332:blue-rect.jpg;true;35087,1636492759329,C,one,label1,Filler-Color-red,NULL
1636492993,f55bee1394870aef9fd013d167b08d64,7,0,experiment,NULL,PennController,7,_Trial_,End,1636492807697,C,one,label1,Filler-Color-red,NULL
1636492993,f55bee1394870aef9fd013d167b08d64,8,0,experiment,NULL,PennController,8,_Trial_,Start,1636492807704,C,one,label1,fruit,NULL
1636492993,f55bee1394870aef9fd013d167b08d64,8,0,experiment,NULL,SelectionGrid,test-phase,Selections,sub-red_apple-1.jpg;sub-red_apple-2.jpg|sub-red_apple-1.jpg;true;4276:sub-red_apple-2.jpg;true;5565,1636492807716,C,one,label1,fruit,NULL
1636492993,f55bee1394870aef9fd013d167b08d64,8,0,experiment,NULL,PennController,8,_Trial_,End,1636492834088,C,one,label1,fruit,NULL
1636492993,f55bee1394870aef9fd013d167b08d64,9,0,experiment,NULL,PennController,9,_Trial_,Start,1636492834092,C,three,label1,furniture,NULL
1636492993,f55bee1394870aef9fd013d167b08d64,9,0,experiment,NULL,SelectionGrid,test-phase,Selections,sub-wooden_chair-2.jpg;sub-wooden_chair-1.jpg|sub-wooden_chair-2.jpg;true;4105:sub-wooden_chair-1.jpg;true;5025,1636492834103,C,three,label1,furniture,NULL
1636492993,f55bee1394870aef9fd013d167b08d64,9,0,experiment,NULL,PennController,9,_Trial_,End,1636492863010,C,three,label1,furniture,NULL
1636492993,f55bee1394870aef9fd013d167b08d64,10,0,experiment,NULL,PennController,10,_Trial_,Start,1636492863015,C,one,label2,light,NULL
1636492993,f55bee1394870aef9fd013d167b08d64,10,0,experiment,NULL,SelectionGrid,test-phase,Selections,contrast-desk_lamp-1.jpg;contrast-desk_lamp-2.jpg|contrast-desk_lamp-1.jpg;true;3010:contrast-desk_lamp-2.jpg;true;4473,1636492863027,C,one,label2,light,NULL
1636492993,f55bee1394870aef9fd013d167b08d64,10,0,experiment,NULL,PennController,10,_Trial_,End,1636492890245,C,one,label2,light,NULL
1636492993,f55bee1394870aef9fd013d167b08d64,11,0,experiment,NULL,PennController,11,_Trial_,Start,1636492890251,C,one,label1,Filler-Shape-triangle,NULL
1636492993,f55bee1394870aef9fd013d167b08d64,11,0,experiment,NULL,SelectionGrid,test-phase,Selections,triangle-5.jpg;triangle-3.jpg;triangle-2.jpg;triangle-4.jpg;triangle-1.jpg|triangle-5.jpg;true;6396:triangle-3.jpg;true;9186:triangle-2.jpg;true;10010:triangle-4.jpg;true;10746:triangle-1.jpg;true;11549,1636492890265,C,one,label1,Filler-Shape-triangle,NULL
1636492993,f55bee1394870aef9fd013d167b08d64,11,0,experiment,NULL,PennController,11,_Trial_,End,1636492919849,C,one,label1,Filler-Shape-triangle,NULL
1636492993,f55bee1394870aef9fd013d167b08d64,12,0,experiment,NULL,PennController,12,_Trial_,Start,1636492919852,C,three,label2,vegetable,NULL
1636492993,f55bee1394870aef9fd013d167b08d64,12,0,experiment,NULL,SelectionGrid,test-phase,Selections,contrast-red_pepper-2.jpg;contrast-red_pepper-1.jpg|contrast-red_pepper-2.jpg;true;2577:basic-pepper-1.jpg;true;3468:contrast-red_pepper-1.jpg;true;6462:basic-pepper-1.jpg;false;7256,1636492919866,C,three,label2,vegetable,NULL
1636492993,f55bee1394870aef9fd013d167b08d64,12,0,experiment,NULL,PennController,12,_Trial_,End,1636492951211,C,three,label2,vegetable,NULL
1636492993,f55bee1394870aef9fd013d167b08d64,13,0,experiment,NULL,PennController,13,_Trial_,Start,1636492951215,C,one,label1,vehicle,NULL
1636492993,f55bee1394870aef9fd013d167b08d64,13,0,experiment,NULL,SelectionGrid,test-phase,Selections,sub-racecar-1.jpg;sub-racecar-2.jpg|sub-racecar-1.jpg;true;3620:sub-racecar-2.jpg;true;5633,1636492951224,C,one,label1,vehicle,NULL
1636492993,f55bee1394870aef9fd013d167b08d64,13,0,experiment,NULL,PennController,13,_Trial_,End,1636492982604,C,one,label1,vehicle,NULL
# 13. window_size.
# 14. Comments.
1636492993,f55bee1394870aef9fd013d167b08d64,14,0,end,NULL,PennController,2,_Trial_,Start,1636492982607,1366x657,NULL
1636492993,f55bee1394870aef9fd013d167b08d64,14,0,end,NULL,PennController,2,_Trial_,End,1636492984789,1366x657,NULL
#
# Results on Fri, 12 Nov 2021 05:15:23 GMT
# USER AGENT: Mozilla/5.0 (Windows NT 10.0; Win64; x64) AppleWebKit/537.36 (KHTML, like Gecko) Chrome/95.0.4638.69 Safari/537.36
# Design number was non-random = 23
#
# Columns below this comment are as follows:
# 1. Results reception time.
# 2. MD5 hash of participant's IP address.
# 3. Controller name.
# 4. Order number of item.
# 5. Inner element number.
# 6. Label.
# 7. Latin Square Group.
# 8. PennElementType.
# 9. PennElementName.
# 10. Parameter.
# 11. Value.
# 12. EventTime.
# 13. Comments.
1636694123,e82dad53f7b79382e0a9980e979d8e4f,2,0,intro,NULL,PennController,0,_Trial_,Start,1636693805189,NULL
1636694123,e82dad53f7b79382e0a9980e979d8e4f,2,0,intro,NULL,PennController,0,_Trial_,End,1636693809945,NULL
1636694123,e82dad53f7b79382e0a9980e979d8e4f,3,0,beginning,NULL,PennController,1,_Trial_,Start,1636693809998,NULL
1636694123,e82dad53f7b79382e0a9980e979d8e4f,3,0,beginning,NULL,PennController,1,_Trial_,End,1636693823222,NULL
# 13. group.
# 14. number.
# 15. target.
# 16. item.
# 17. Comments.
1636694123,e82dad53f7b79382e0a9980e979d8e4f,4,0,experiment,NULL,PennController,4,_Trial_,Start,1636693823228,D,three,label2,animal,NULL
1636694123,e82dad53f7b79382e0a9980e979d8e4f,4,0,experiment,NULL,SelectionGrid,test-phase,Selections,contrast-corgi-2.jpg;contrast-corgi-1.jpg|contrast-corgi-2.jpg;true;7660:contrast-corgi-1.jpg;true;9279,1636693823244,D,three,label2,animal,NULL
1636694123,e82dad53f7b79382e0a9980e979d8e4f,4,0,experiment,NULL,PennController,4,_Trial_,End,1636693859569,D,three,label2,animal,NULL
1636694123,e82dad53f7b79382e0a9980e979d8e4f,5,0,experiment,NULL,PennController,5,_Trial_,Start,1636693859573,D,one,label1,beast,NULL
1636694123,e82dad53f7b79382e0a9980e979d8e4f,5,0,experiment,NULL,SelectionGrid,test-phase,Selections,sub-trex-1.jpg;sub-trex-2.jpg|sub-trex-1.jpg;true;3769:sub-trex-2.jpg;true;8830,1636693859584,D,one,label1,beast,NULL
1636694123,e82dad53f7b79382e0a9980e979d8e4f,5,0,experiment,NULL,PennController,5,_Trial_,End,1636693890247,D,one,label1,beast,NULL
1636694123,e82dad53f7b79382e0a9980e979d8e4f,6,0,experiment,NULL,PennController,6,_Trial_,Start,1636693890251,D,three,label1,electronics,NULL
1636694123,e82dad53f7b79382e0a9980e979d8e4f,6,0,experiment,NULL,SelectionGrid,test-phase,Selections,sub-smart_phone-1.jpg;sub-smart_phone-2.jpg|sub-smart_phone-1.jpg;true;7525:sub-smart_phone-2.jpg;true;11000,1636693890264,D,three,label1,electronics,NULL
1636694123,e82dad53f7b79382e0a9980e979d8e4f,6,0,experiment,NULL,PennController,6,_Trial_,End,1636693921918,D,three,label1,electronics,NULL
1636694123,e82dad53f7b79382e0a9980e979d8e4f,7,0,experiment,NULL,PennController,7,_Trial_,Start,1636693921922,D,one,label1,Filler-Color-red,NULL
1636694123,e82dad53f7b79382e0a9980e979d8e4f,7,0,experiment,NULL,SelectionGrid,test-phase,Selections,red-rect.jpg|red-rect.jpg;true;3708:red-rect.jpg;true;4618:red-rect.jpg;true;5599:red-rect.jpg;true;7085:red-rect.jpg;true;8166:red-rect.jpg;true;9148,1636693921933,D,one,label1,Filler-Color-red,NULL
1636694123,e82dad53f7b79382e0a9980e979d8e4f,7,0,experiment,NULL,PennController,7,_Trial_,End,1636693945299,D,one,label1,Filler-Color-red,NULL
1636694123,e82dad53f7b79382e0a9980e979d8e4f,8,0,experiment,NULL,PennController,8,_Trial_,Start,1636693945305,D,one,label2,fruit,NULL
1636694123,e82dad53f7b79382e0a9980e979d8e4f,8,0,experiment,NULL,SelectionGrid,test-phase,Selections,basic-apple-2.jpg;contrast-green_apple-1.jpg;contrast-green_apple-2.jpg;basic-apple-1.jpg|basic-apple-2.jpg;true;7492:contrast-green_apple-1.jpg;true;8929:contrast-green_apple-2.jpg;true;10464:basic-apple-1.jpg;true;12183,1636693945317,D,one,label2,fruit,NULL
1636694123,e82dad53f7b79382e0a9980e979d8e4f,8,0,experiment,NULL,PennController,8,_Trial_,End,1636693979914,D,one,label2,fruit,NULL
1636694123,e82dad53f7b79382e0a9980e979d8e4f,9,0,experiment,NULL,PennController,9,_Trial_,Start,1636693979917,D,three,label2,furniture,NULL
1636694123,e82dad53f7b79382e0a9980e979d8e4f,9,0,experiment,NULL,SelectionGrid,test-phase,Selections,contrast-office_chair-2.jpg;contrast-office_chair-1.jpg|contrast-office_chair-2.jpg;true;5734:contrast-office_chair-1.jpg;true;6887,1636693979930,D,three,label2,furniture,NULL
1636694123,e82dad53f7b79382e0a9980e979d8e4f,9,0,experiment,NULL,PennController,9,_Trial_,End,1636694010761,D,three,label2,furniture,NULL
1636694123,e82dad53f7b79382e0a9980e979d8e4f,10,0,experiment,NULL,PennController,10,_Trial_,Start,1636694010767,D,one,label1,light,NULL
1636694123,e82dad53f7b79382e0a9980e979d8e4f,10,0,experiment,NULL,SelectionGrid,test-phase,Selections,sub-gooseneck_lamp-2.jpg;sub-gooseneck_lamp-1.jpg|sub-gooseneck_lamp-2.jpg;true;3538:sub-gooseneck_lamp-1.jpg;true;5614,1636694010777,D,one,label1,light,NULL
1636694123,e82dad53f7b79382e0a9980e979d8e4f,10,0,experiment,NULL,PennController,10,_Trial_,End,1636694039297,D,one,label1,light,NULL
1636694123,e82dad53f7b79382e0a9980e979d8e4f,11,0,experiment,NULL,PennController,11,_Trial_,Start,1636694039300,D,one,label1,Filler-Shape-triangle,NULL
1636694123,e82dad53f7b79382e0a9980e979d8e4f,11,0,experiment,NULL,SelectionGrid,test-phase,Selections,triangle-5.jpg;triangle-3.jpg;triangle-2.jpg;triangle-4.jpg;triangle-1.jpg|triangle-5.jpg;true;4154:triangle-3.jpg;true;5187:triangle-2.jpg;true;6414:triangle-4.jpg;true;7323:triangle-1.jpg;true;8307,1636694039312,D,one,label1,Filler-Shape-triangle,NULL
1636694123,e82dad53f7b79382e0a9980e979d8e4f,11,0,experiment,NULL,PennController,11,_Trial_,End,1636694061192,D,one,label1,Filler-Shape-triangle,NULL
1636694123,e82dad53f7b79382e0a9980e979d8e4f,12,0,experiment,NULL,PennController,12,_Trial_,Start,1636694061195,D,three,label1,vegetable,NULL
1636694123,e82dad53f7b79382e0a9980e979d8e4f,12,0,experiment,NULL,SelectionGrid,test-phase,Selections,sub-green_pepper-1.jpg;sub-green_pepper-2.jpg|sub-green_pepper-1.jpg;true;5939:sub-green_pepper-2.jpg;true;7486,1636694061210,D,three,label1,vegetable,NULL
1636694123,e82dad53f7b79382e0a9980e979d8e4f,12,0,experiment,NULL,PennController,12,_Trial_,End,1636694090365,D,three,label1,vegetable,NULL
1636694123,e82dad53f7b79382e0a9980e979d8e4f,13,0,experiment,NULL,PennController,13,_Trial_,Start,1636694090369,D,one,label2,vehicle,NULL
1636694123,e82dad53f7b79382e0a9980e979d8e4f,13,0,experiment,NULL,SelectionGrid,test-phase,Selections,contrast-van-2.jpg;contrast-van-1.jpg|contrast-van-2.jpg;true;4228:contrast-van-1.jpg;true;5898,1636694090380,D,one,label2,vehicle,NULL
1636694123,e82dad53f7b79382e0a9980e979d8e4f,13,0,experiment,NULL,PennController,13,_Trial_,End,1636694118501,D,one,label2,vehicle,NULL
# 13. window_size.
# 14. Comments.
1636694123,e82dad53f7b79382e0a9980e979d8e4f,14,0,end,NULL,PennController,2,_Trial_,Start,1636694118504,1366x625,NULL
1636694123,e82dad53f7b79382e0a9980e979d8e4f,14,0,end,NULL,PennController,2,_Trial_,End,1636694121366,1366x625,NULL
#
# Results on Tue, 16 Nov 2021 22:07:33 GMT
# USER AGENT: Mozilla/5.0 (Windows NT 10.0; Win64; x64) AppleWebKit/537.36 (KHTML, like Gecko) Chrome/95.0.4638.69 Safari/537.36
# Design number was non-random = 24
#
# Columns below this comment are as follows:
# 1. Results reception time.
# 2. MD5 hash of participant's IP address.
# 3. Controller name.
# 4. Order number of item.
# 5. Inner element number.
# 6. Label.
# 7. Latin Square Group.
# 8. PennElementType.
# 9. PennElementName.
# 10. Parameter.
# 11. Value.
# 12. EventTime.
# 13. Comments.
1637100453,c7b3720d8f06c94a4e18a03b8ccb1e53,2,0,intro,NULL,PennController,0,_Trial_,Start,1637100174085,NULL
1637100453,c7b3720d8f06c94a4e18a03b8ccb1e53,2,0,intro,NULL,PennController,0,_Trial_,End,1637100176025,NULL
1637100453,c7b3720d8f06c94a4e18a03b8ccb1e53,3,0,beginning,NULL,PennController,1,_Trial_,Start,1637100176033,NULL
1637100453,c7b3720d8f06c94a4e18a03b8ccb1e53,3,0,beginning,NULL,PennController,1,_Trial_,End,1637100185746,NULL
# 13. group.
# 14. number.
# 15. target.
# 16. item.
# 17. Comments.
1637100453,c7b3720d8f06c94a4e18a03b8ccb1e53,4,0,experiment,NULL,PennController,4,_Trial_,Start,1637100185747,A,one,label1,animal,NULL
1637100453,c7b3720d8f06c94a4e18a03b8ccb1e53,4,0,experiment,NULL,SelectionGrid,test-phase,Selections,sub-dalmatian-2.jpg;sub-dalmatian-1.jpg|sub-dalmatian-2.jpg;true;3430:sub-dalmatian-1.jpg;true;5807,1637100185751,A,one,label1,animal,NULL
1637100453,c7b3720d8f06c94a4e18a03b8ccb1e53,4,0,experiment,NULL,PennController,4,_Trial_,End,1637100213947,A,one,label1,animal,NULL
1637100453,c7b3720d8f06c94a4e18a03b8ccb1e53,5,0,experiment,NULL,PennController,5,_Trial_,Start,1637100213948,A,three,label2,beast,NULL
1637100453,c7b3720d8f06c94a4e18a03b8ccb1e53,5,0,experiment,NULL,SelectionGrid,test-phase,Selections,contrast-triceratops-1.jpg;contrast-triceratops-2.jpg|contrast-triceratops-1.jpg;true;7728:contrast-triceratops-2.jpg;true;10966,1637100213951,A,three,label2,beast,NULL
1637100453,c7b3720d8f06c94a4e18a03b8ccb1e53,5,0,experiment,NULL,PennController,5,_Trial_,End,1637100247377,A,three,label2,beast,NULL
1637100453,c7b3720d8f06c94a4e18a03b8ccb1e53,6,0,experiment,NULL,PennController,6,_Trial_,Start,1637100247378,A,one,label2,electronics,NULL
1637100453,c7b3720d8f06c94a4e18a03b8ccb1e53,6,0,experiment,NULL,SelectionGrid,test-phase,Selections,contrast-flip_phone-1.jpg;contrast-flip_phone-2.jpg|contrast-flip_phone-1.jpg;true;3390:contrast-flip_phone-2.jpg;true;3806,1637100247380,A,one,label2,electronics,NULL
1637100453,c7b3720d8f06c94a4e18a03b8ccb1e53,6,0,experiment,NULL,PennController,6,_Trial_,End,1637100273753,A,one,label2,electronics,NULL
1637100453,c7b3720d8f06c94a4e18a03b8ccb1e53,7,0,experiment,NULL,PennController,7,_Trial_,Start,1637100273754,A,one,label1,Filler-Color-red,NULL
1637100453,c7b3720d8f06c94a4e18a03b8ccb1e53,7,0,experiment,NULL,SelectionGrid,test-phase,Selections,red-rect.jpg|red-rect.jpg;true;2300:red-rect.jpg;false;3715:red-rect.jpg;true;4522:red-rect.jpg;true;4882:red-rect.jpg;true;5578:red-rect.jpg;true;7482:red-rect.jpg;true;7898:red-rect.jpg;true;8242,1637100273756,A,one,label1,Filler-Color-red,NULL
1637100453,c7b3720d8f06c94a4e18a03b8ccb1e53,7,0,experiment,NULL,PennController,7,_Trial_,End,1637100295400,A,one,label1,Filler-Color-red,NULL
1637100453,c7b3720d8f06c94a4e18a03b8ccb1e53,8,0,experiment,NULL,PennController,8,_Trial_,Start,1637100295402,A,three,label1,fruit,NULL
1637100453,c7b3720d8f06c94a4e18a03b8ccb1e53,8,0,experiment,NULL,SelectionGrid,test-phase,Selections,sub-red_apple-1.jpg;sub-red_apple-2.jpg|sub-red_apple-1.jpg;true;2527:sub-red_apple-2.jpg;true;3118,1637100295404,A,three,label1,fruit,NULL
1637100453,c7b3720d8f06c94a4e18a03b8ccb1e53,8,0,experiment,NULL,PennController,8,_Trial_,End,1637100320744,A,three,label1,fruit,NULL
1637100453,c7b3720d8f06c94a4e18a03b8ccb1e53,9,0,experiment,NULL,PennController,9,_Trial_,Start,1637100320745,A,one,label1,furniture,NULL
1637100453,c7b3720d8f06c94a4e18a03b8ccb1e53,9,0,experiment,NULL,SelectionGrid,test-phase,Selections,sub-wooden_chair-2.jpg;sub-wooden_chair-1.jpg|sub-wooden_chair-2.jpg;true;2983:sub-wooden_chair-1.jpg;true;5319,1637100320747,A,one,label1,furniture,NULL
1637100453,c7b3720d8f06c94a4e18a03b8ccb1e53,9,0,experiment,NULL,PennController,9,_Trial_,End,1637100348287,A,one,label1,furniture,NULL
1637100453,c7b3720d8f06c94a4e18a03b8ccb1e53,10,0,experiment,NULL,PennController,10,_Trial_,Start,1637100348288,A,three,label2,light,NULL
1637100453,c7b3720d8f06c94a4e18a03b8ccb1e53,10,0,experiment,NULL,SelectionGrid,test-phase,Selections,contrast-desk_lamp-1.jpg;contrast-desk_lamp-2.jpg|contrast-desk_lamp-1.jpg;true;4553:contrast-desk_lamp-2.jpg;true;5449,1637100348290,A,three,label2,light,NULL
1637100453,c7b3720d8f06c94a4e18a03b8ccb1e53,10,0,experiment,NULL,PennController,10,_Trial_,End,1637100374920,A,three,label2,light,NULL
1637100453,c7b3720d8f06c94a4e18a03b8ccb1e53,11,0,experiment,NULL,PennController,11,_Trial_,Start,1637100374921,A,one,label1,Filler-Shape-triangle,NULL
1637100453,c7b3720d8f06c94a4e18a03b8ccb1e53,11,0,experiment,NULL,SelectionGrid,test-phase,Selections,triangle-1.jpg|triangle-1.jpg;true;3472,1637100374924,A,one,label1,Filler-Shape-triangle,NULL
1637100453,c7b3720d8f06c94a4e18a03b8ccb1e53,11,0,experiment,NULL,PennController,11,_Trial_,End,1637100396255,A,one,label1,Filler-Shape-triangle,NULL
1637100453,c7b3720d8f06c94a4e18a03b8ccb1e53,12,0,experiment,NULL,PennController,12,_Trial_,Start,1637100396256,A,one,label2,vegetable,NULL
1637100453,c7b3720d8f06c94a4e18a03b8ccb1e53,12,0,experiment,NULL,SelectionGrid,test-phase,Selections,contrast-red_pepper-1.jpg;contrast-red_pepper-2.jpg|sub-green_pepper-2.jpg;true;1756:contrast-red_pepper-1.jpg;true;4028:sub-green_pepper-2.jpg;false;4660:contrast-red_pepper-2.jpg;true;7140,1637100396258,A,one,label2,vegetable,NULL
1637100453,c7b3720d8f06c94a4e18a03b8ccb1e53,12,0,experiment,NULL,PennController,12,_Trial_,End,1637100423895,A,one,label2,vegetable,NULL
1637100453,c7b3720d8f06c94a4e18a03b8ccb1e53,13,0,experiment,NULL,PennController,13,_Trial_,Start,1637100423896,A,three,label1,vehicle,NULL
1637100453,c7b3720d8f06c94a4e18a03b8ccb1e53,13,0,experiment,NULL,SelectionGrid,test-phase,Selections,sub-racecar-2.jpg;sub-racecar-1.jpg|sub-racecar-2.jpg;true;3125:sub-racecar-1.jpg;true;5549,1637100423898,A,three,label1,vehicle,NULL
1637100453,c7b3720d8f06c94a4e18a03b8ccb1e53,13,0,experiment,NULL,PennController,13,_Trial_,End,1637100450743,A,three,label1,vehicle,NULL
# 13. window_size.
# 14. Comments.
1637100453,c7b3720d8f06c94a4e18a03b8ccb1e53,14,0,end,NULL,PennController,2,_Trial_,Start,1637100450744,1366x625,NULL
1637100453,c7b3720d8f06c94a4e18a03b8ccb1e53,14,0,end,NULL,PennController,2,_Trial_,End,1637100452270,1366x625,NULL
#
# Results on Tue, 16 Nov 2021 22:09:06 GMT
# USER AGENT: Mozilla/5.0 (Windows NT 10.0; Win64; x64) AppleWebKit/537.36 (KHTML, like Gecko) Chrome/95.0.4638.69 Safari/537.36
# Design number was non-random = 25
#
# Columns below this comment are as follows:
# 1. Results reception time.
# 2. MD5 hash of participant's IP address.
# 3. Controller name.
# 4. Order number of item.
# 5. Inner element number.
# 6. Label.
# 7. Latin Square Group.
# 8. PennElementType.
# 9. PennElementName.
# 10. Parameter.
# 11. Value.
# 12. EventTime.
# 13. Comments.
1637100546,9a37a9529faf5106cffd32471c5cd20d,2,0,intro,NULL,PennController,0,_Trial_,Start,1637100272342,NULL
1637100546,9a37a9529faf5106cffd32471c5cd20d,2,0,intro,NULL,PennController,0,_Trial_,End,1637100279927,NULL
1637100546,9a37a9529faf5106cffd32471c5cd20d,3,0,beginning,NULL,PennController,1,_Trial_,Start,1637100279935,NULL
1637100546,9a37a9529faf5106cffd32471c5cd20d,3,0,beginning,NULL,PennController,1,_Trial_,End,1637100286832,NULL
# 13. group.
# 14. number.
# 15. target.
# 16. item.
# 17. Comments.
1637100546,9a37a9529faf5106cffd32471c5cd20d,4,0,experiment,NULL,PennController,4,_Trial_,Start,1637100286833,B,one,label2,animal,NULL
1637100546,9a37a9529faf5106cffd32471c5cd20d,4,0,experiment,NULL,SelectionGrid,test-phase,Selections,contrast-corgi-2.jpg;contrast-corgi-1.jpg|contrast-corgi-2.jpg;true;2257:contrast-corgi-1.jpg;true;3244,1637100286836,B,one,label2,animal,NULL
1637100546,9a37a9529faf5106cffd32471c5cd20d,4,0,experiment,NULL,PennController,4,_Trial_,End,1637100313870,B,one,label2,animal,NULL
1637100546,9a37a9529faf5106cffd32471c5cd20d,5,0,experiment,NULL,PennController,5,_Trial_,Start,1637100313871,B,three,label1,beast,NULL
1637100546,9a37a9529faf5106cffd32471c5cd20d,5,0,experiment,NULL,SelectionGrid,test-phase,Selections,sub-trex-2.jpg;sub-trex-1.jpg|sub-trex-2.jpg;true;4495:sub-trex-1.jpg;true;5700,1637100313873,B,three,label1,beast,NULL
1637100546,9a37a9529faf5106cffd32471c5cd20d,5,0,experiment,NULL,PennController,5,_Trial_,End,1637100343358,B,three,label1,beast,NULL
1637100546,9a37a9529faf5106cffd32471c5cd20d,6,0,experiment,NULL,PennController,6,_Trial_,Start,1637100343359,B,one,label1,electronics,NULL
1637100546,9a37a9529faf5106cffd32471c5cd20d,6,0,experiment,NULL,SelectionGrid,test-phase,Selections,sub-smart_phone-2.jpg;sub-smart_phone-1.jpg|sub-smart_phone-2.jpg;true;2912:sub-smart_phone-1.jpg;true;4886,1637100343361,B,one,label1,electronics,NULL
1637100546,9a37a9529faf5106cffd32471c5cd20d,6,0,experiment,NULL,PennController,6,_Trial_,End,1637100370239,B,one,label1,electronics,NULL
1637100546,9a37a9529faf5106cffd32471c5cd20d,7,0,experiment,NULL,PennController,7,_Trial_,Start,1637100370240,B,one,label1,Filler-Color-red,NULL
1637100546,9a37a9529faf5106cffd32471c5cd20d,7,0,experiment,NULL,SelectionGrid,test-phase,Selections,red-rect.jpg|red-rect.jpg;true;1678:red-rect.jpg;true;2260:red-rect.jpg;true;2565:red-rect.jpg;true;2958:red-rect.jpg;true;3452:red-rect.jpg;true;3639,1637100370242,B,one,label1,Filler-Color-red,NULL
1637100546,9a37a9529faf5106cffd32471c5cd20d,7,0,experiment,NULL,PennController,7,_Trial_,End,1637100387145,B,one,label1,Filler-Color-red,NULL
1637100546,9a37a9529faf5106cffd32471c5cd20d,8,0,experiment,NULL,PennController,8,_Trial_,Start,1637100387146,B,three,label2,fruit,NULL
1637100546,9a37a9529faf5106cffd32471c5cd20d,8,0,experiment,NULL,SelectionGrid,test-phase,Selections,contrast-green_apple-1.jpg;contrast-green_apple-2.jpg|contrast-green_apple-1.jpg;true;3832:contrast-green_apple-2.jpg;true;9543,1637100387148,B,three,label2,fruit,NULL
1637100546,9a37a9529faf5106cffd32471c5cd20d,8,0,experiment,NULL,PennController,8,_Trial_,End,1637100419842,B,three,label2,fruit,NULL
1637100546,9a37a9529faf5106cffd32471c5cd20d,9,0,experiment,NULL,PennController,9,_Trial_,Start,1637100419843,B,one,label2,furniture,NULL
1637100546,9a37a9529faf5106cffd32471c5cd20d,9,0,experiment,NULL,SelectionGrid,test-phase,Selections,contrast-office_chair-2.jpg;contrast-office_chair-1.jpg|contrast-office_chair-2.jpg;true;2374:contrast-office_chair-1.jpg;true;3029,1637100419845,B,one,label2,furniture,NULL
1637100546,9a37a9529faf5106cffd32471c5cd20d,9,0,experiment,NULL,PennController,9,_Trial_,End,1637100444029,B,one,label2,furniture,NULL
1637100546,9a37a9529faf5106cffd32471c5cd20d,10,0,experiment,NULL,PennController,10,_Trial_,Start,1637100444030,B,three,label1,light,NULL
1637100546,9a37a9529faf5106cffd32471c5cd20d,10,0,experiment,NULL,SelectionGrid,test-phase,Selections,sub-gooseneck_lamp-1.jpg;sub-gooseneck_lamp-2.jpg|sub-gooseneck_lamp-1.jpg;true;2050:sub-gooseneck_lamp-2.jpg;true;3406,1637100444032,B,three,label1,light,NULL
1637100546,9a37a9529faf5106cffd32471c5cd20d,10,0,experiment,NULL,PennController,10,_Trial_,End,1637100468657,B,three,label1,light,NULL
1637100546,9a37a9529faf5106cffd32471c5cd20d,11,0,experiment,NULL,PennController,11,_Trial_,Start,1637100468657,B,one,label1,Filler-Shape-triangle,NULL
1637100546,9a37a9529faf5106cffd32471c5cd20d,11,0,experiment,NULL,SelectionGrid,test-phase,Selections,triangle-5.jpg;triangle-3.jpg;triangle-2.jpg;triangle-4.jpg;triangle-1.jpg|triangle-5.jpg;true;1478:triangle-3.jpg;true;1897:triangle-2.jpg;true;2242:triangle-4.jpg;true;2555:triangle-1.jpg;true;2940,1637100468660,B,one,label1,Filler-Shape-triangle,NULL
1637100546,9a37a9529faf5106cffd32471c5cd20d,11,0,experiment,NULL,PennController,11,_Trial_,End,1637100485131,B,one,label1,Filler-Shape-triangle,NULL
1637100546,9a37a9529faf5106cffd32471c5cd20d,12,0,experiment,NULL,PennController,12,_Trial_,Start,1637100485132,B,one,label1,vegetable,NULL
1637100546,9a37a9529faf5106cffd32471c5cd20d,12,0,experiment,NULL,SelectionGrid,test-phase,Selections,sub-green_pepper-2.jpg;sub-green_pepper-1.jpg|sub-green_pepper-2.jpg;true;2228:sub-green_pepper-1.jpg;true;4073:sub-green_pepper-1.jpg;false;6789:sub-green_pepper-1.jpg;true;11272,1637100485134,B,one,label1,vegetable,NULL
1637100546,9a37a9529faf5106cffd32471c5cd20d,12,0,experiment,NULL,PennController,12,_Trial_,End,1637100516615,B,one,label1,vegetable,NULL
1637100546,9a37a9529faf5106cffd32471c5cd20d,13,0,experiment,NULL,PennController,13,_Trial_,Start,1637100516615,B,three,label2,vehicle,NULL
1637100546,9a37a9529faf5106cffd32471c5cd20d,13,0,experiment,NULL,SelectionGrid,test-phase,Selections,contrast-van-2.jpg;contrast-van-1.jpg|contrast-van-2.jpg;true;2333:contrast-van-1.jpg;true;3344,1637100516617,B,three,label2,vehicle,NULL
1637100546,9a37a9529faf5106cffd32471c5cd20d,13,0,experiment,NULL,PennController,13,_Trial_,End,1637100542933,B,three,label2,vehicle,NULL
# 13. window_size.
# 14. Comments.
1637100546,9a37a9529faf5106cffd32471c5cd20d,14,0,end,NULL,PennController,2,_Trial_,Start,1637100542934,1920x937,NULL
1637100546,9a37a9529faf5106cffd32471c5cd20d,14,0,end,NULL,PennController,2,_Trial_,End,1637100545680,1920x937,NULL
#
# Results on Tue, 16 Nov 2021 22:10:09 GMT
# USER AGENT: Mozilla/5.0 (Windows NT 10.0; Win64; x64) AppleWebKit/537.36 (KHTML, like Gecko) Chrome/95.0.4638.69 Safari/537.36
# Design number was non-random = 26
#
# Columns below this comment are as follows:
# 1. Results reception time.
# 2. MD5 hash of participant's IP address.
# 3. Controller name.
# 4. Order number of item.
# 5. Inner element number.
# 6. Label.
# 7. Latin Square Group.
# 8. PennElementType.
# 9. PennElementName.
# 10. Parameter.
# 11. Value.
# 12. EventTime.
# 13. Comments.
1637100609,4369fd65d3aeb48b375893f363b3e534,2,0,intro,NULL,PennController,0,_Trial_,Start,1637100314795,NULL
1637100609,4369fd65d3aeb48b375893f363b3e534,2,0,intro,NULL,PennController,0,_Trial_,End,1637100319470,NULL
1637100609,4369fd65d3aeb48b375893f363b3e534,3,0,beginning,NULL,PennController,1,_Trial_,Start,1637100319492,NULL
1637100609,4369fd65d3aeb48b375893f363b3e534,3,0,beginning,NULL,PennController,1,_Trial_,End,1637100334136,NULL
# 13. group.
# 14. number.
# 15. target.
# 16. item.
# 17. Comments.
1637100609,4369fd65d3aeb48b375893f363b3e534,4,0,experiment,NULL,PennController,4,_Trial_,Start,1637100334140,C,three,label1,animal,NULL
1637100609,4369fd65d3aeb48b375893f363b3e534,4,0,experiment,NULL,SelectionGrid,test-phase,Selections,sub-dalmatian-1.jpg;sub-dalmatian-2.jpg|sub-dalmatian-1.jpg;true;6038:sub-dalmatian-2.jpg;true;6905,1637100334154,C,three,label1,animal,NULL
1637100609,4369fd65d3aeb48b375893f363b3e534,4,0,experiment,NULL,PennController,4,_Trial_,End,1637100363997,C,three,label1,animal,NULL
1637100609,4369fd65d3aeb48b375893f363b3e534,5,0,experiment,NULL,PennController,5,_Trial_,Start,1637100363999,C,one,label2,beast,NULL
1637100609,4369fd65d3aeb48b375893f363b3e534,5,0,experiment,NULL,SelectionGrid,test-phase,Selections,contrast-triceratops-2.jpg;contrast-triceratops-1.jpg|contrast-triceratops-2.jpg;true;4905:contrast-triceratops-1.jpg;true;10679,1637100364004,C,one,label2,beast,NULL
1637100609,4369fd65d3aeb48b375893f363b3e534,5,0,experiment,NULL,PennController,5,_Trial_,End,1637100395388,C,one,label2,beast,NULL
1637100609,4369fd65d3aeb48b375893f363b3e534,6,0,experiment,NULL,PennController,6,_Trial_,Start,1637100395390,C,three,label2,electronics,NULL
1637100609,4369fd65d3aeb48b375893f363b3e534,6,0,experiment,NULL,SelectionGrid,test-phase,Selections,contrast-flip_phone-1.jpg;contrast-flip_phone-2.jpg|contrast-flip_phone-1.jpg;true;3011:contrast-flip_phone-2.jpg;true;4620,1637100395393,C,three,label2,electronics,NULL
1637100609,4369fd65d3aeb48b375893f363b3e534,6,0,experiment,NULL,PennController,6,_Trial_,End,1637100421858,C,three,label2,electronics,NULL
1637100609,4369fd65d3aeb48b375893f363b3e534,7,0,experiment,NULL,PennController,7,_Trial_,Start,1637100421859,C,one,label1,Filler-Color-red,NULL
1637100609,4369fd65d3aeb48b375893f363b3e534,7,0,experiment,NULL,SelectionGrid,test-phase,Selections,red-rect.jpg|red-rect.jpg;true;2499:red-rect.jpg;true;3133:red-rect.jpg;true;3891:red-rect.jpg;false;3937:red-rect.jpg;true;4957:red-rect.jpg;true;5569:red-rect.jpg;true;6511,1637100421864,C,one,label1,Filler-Color-red,NULL
1637100609,4369fd65d3aeb48b375893f363b3e534,7,0,experiment,NULL,PennController,7,_Trial_,End,1637100441691,C,one,label1,Filler-Color-red,NULL
1637100609,4369fd65d3aeb48b375893f363b3e534,8,0,experiment,NULL,PennController,8,_Trial_,Start,1637100441692,C,one,label1,fruit,NULL
1637100609,4369fd65d3aeb48b375893f363b3e534,8,0,experiment,NULL,SelectionGrid,test-phase,Selections,sub-red_apple-2.jpg;sub-red_apple-1.jpg;basic-apple-3.jpg|sub-red_apple-2.jpg;true;2853:sub-red_apple-1.jpg;true;3888:basic-apple-3.jpg;true;10722,1637100441697,C,one,label1,fruit,NULL
1637100609,4369fd65d3aeb48b375893f363b3e534,8,0,experiment,NULL,PennController,8,_Trial_,End,1637100472541,C,one,label1,fruit,NULL
1637100609,4369fd65d3aeb48b375893f363b3e534,9,0,experiment,NULL,PennController,9,_Trial_,Start,1637100472543,C,three,label1,furniture,NULL
1637100609,4369fd65d3aeb48b375893f363b3e534,9,0,experiment,NULL,SelectionGrid,test-phase,Selections,sub-wooden_chair-1.jpg;sub-wooden_chair-2.jpg|sub-wooden_chair-1.jpg;true;9341:sub-wooden_chair-2.jpg;true;10013,1637100472547,C,three,label1,furniture,NULL
1637100609,4369fd65d3aeb48b375893f363b3e534,9,0,experiment,NULL,PennController,9,_Trial_,End,1637100503982,C,three,label1,furniture,NULL
1637100609,4369fd65d3aeb48b375893f363b3e534,10,0,experiment,NULL,PennController,10,_Trial_,Start,1637100503983,C,one,label2,light,NULL
1637100609,4369fd65d3aeb48b375893f363b3e534,10,0,experiment,NULL,SelectionGrid,test-phase,Selections,contrast-desk_lamp-1.jpg;contrast-desk_lamp-2.jpg|contrast-desk_lamp-1.jpg;true;3185:contrast-desk_lamp-2.jpg;true;4035,1637100503987,C,one,label2,light,NULL
1637100609,4369fd65d3aeb48b375893f363b3e534,10,0,experiment,NULL,PennController,10,_Trial_,End,1637100528731,C,one,label2,light,NULL
1637100609,4369fd65d3aeb48b375893f363b3e534,11,0,experiment,NULL,PennController,11,_Trial_,Start,1637100528732,C,one,label1,Filler-Shape-triangle,NULL
1637100609,4369fd65d3aeb48b375893f363b3e534,11,0,experiment,NULL,SelectionGrid,test-phase,Selections,triangle-3.jpg;triangle-5.jpg;triangle-2.jpg;triangle-4.jpg;triangle-1.jpg|triangle-3.jpg;true;2167:triangle-5.jpg;true;2840:triangle-2.jpg;true;3458:triangle-4.jpg;true;4015:triangle-1.jpg;true;4556,1637100528737,C,one,label1,Filler-Shape-triangle,NULL
1637100609,4369fd65d3aeb48b375893f363b3e534,11,0,experiment,NULL,PennController,11,_Trial_,End,1637100546260,C,one,label1,Filler-Shape-triangle,NULL
1637100609,4369fd65d3aeb48b375893f363b3e534,12,0,experiment,NULL,PennController,12,_Trial_,Start,1637100546261,C,three,label2,vegetable,NULL
1637100609,4369fd65d3aeb48b375893f363b3e534,12,0,experiment,NULL,SelectionGrid,test-phase,Selections,contrast-red_pepper-1.jpg|contrast-red_pepper-1.jpg;true;6861,1637100546266,C,three,label2,vegetable,NULL
1637100609,4369fd65d3aeb48b375893f363b3e534,12,0,experiment,NULL,PennController,12,_Trial_,End,1637100575724,C,three,label2,vegetable,NULL
1637100609,4369fd65d3aeb48b375893f363b3e534,13,0,experiment,NULL,PennController,13,_Trial_,Start,1637100575725,C,one,label1,vehicle,NULL
1637100609,4369fd65d3aeb48b375893f363b3e534,13,0,experiment,NULL,SelectionGrid,test-phase,Selections,sub-racecar-1.jpg;sub-racecar-2.jpg|sub-racecar-1.jpg;true;6011:sub-racecar-2.jpg;true;7619,1637100575729,C,one,label1,vehicle,NULL
1637100609,4369fd65d3aeb48b375893f363b3e534,13,0,experiment,NULL,PennController,13,_Trial_,End,1637100604345,C,one,label1,vehicle,NULL
# 13. window_size.
# 14. Comments.
1637100609,4369fd65d3aeb48b375893f363b3e534,14,0,end,NULL,PennController,2,_Trial_,Start,1637100604346,1536x722,NULL
1637100609,4369fd65d3aeb48b375893f363b3e534,14,0,end,NULL,PennController,2,_Trial_,End,1637100607373,1536x722,NULL
#
# Results on Tue, 16 Nov 2021 22:10:29 GMT
# USER AGENT: Mozilla/5.0 (Macintosh; Intel Mac OS X 10_15_7) AppleWebKit/537.36 (KHTML, like Gecko) Chrome/95.0.4638.69 Safari/537.36
# Design number was non-random = 27
#
# Columns below this comment are as follows:
# 1. Results reception time.
# 2. MD5 hash of participant's IP address.
# 3. Controller name.
# 4. Order number of item.
# 5. Inner element number.
# 6. Label.
# 7. Latin Square Group.
# 8. PennElementType.
# 9. PennElementName.
# 10. Parameter.
# 11. Value.
# 12. EventTime.
# 13. Comments.
1637100629,18d149d02b145bb3aeacea264dfd287a,2,0,intro,NULL,PennController,0,_Trial_,Start,1637100354561,NULL
1637100629,18d149d02b145bb3aeacea264dfd287a,2,0,intro,NULL,PennController,0,_Trial_,End,1637100358526,NULL
1637100629,18d149d02b145bb3aeacea264dfd287a,3,0,beginning,NULL,PennController,1,_Trial_,Start,1637100358530,NULL
1637100629,18d149d02b145bb3aeacea264dfd287a,3,0,beginning,NULL,PennController,1,_Trial_,End,1637100370765,NULL
# 13. group.
# 14. number.
# 15. target.
# 16. item.
# 17. Comments.
1637100629,18d149d02b145bb3aeacea264dfd287a,4,0,experiment,NULL,PennController,4,_Trial_,Start,1637100370767,D,three,label2,animal,NULL
1637100629,18d149d02b145bb3aeacea264dfd287a,4,0,experiment,NULL,SelectionGrid,test-phase,Selections,contrast-corgi-2.jpg;contrast-corgi-1.jpg|contrast-corgi-2.jpg;true;4163:contrast-corgi-1.jpg;true;5285,1637100370771,D,three,label2,animal,NULL
1637100629,18d149d02b145bb3aeacea264dfd287a,4,0,experiment,NULL,PennController,4,_Trial_,End,1637100399011,D,three,label2,animal,NULL
1637100629,18d149d02b145bb3aeacea264dfd287a,5,0,experiment,NULL,PennController,5,_Trial_,Start,1637100399012,D,one,label1,beast,NULL
1637100629,18d149d02b145bb3aeacea264dfd287a,5,0,experiment,NULL,SelectionGrid,test-phase,Selections,sub-trex-1.jpg;sub-trex-2.jpg|sub-trex-1.jpg;true;3713:sub-trex-2.jpg;true;6386,1637100399015,D,one,label1,beast,NULL
1637100629,18d149d02b145bb3aeacea264dfd287a,5,0,experiment,NULL,PennController,5,_Trial_,End,1637100425922,D,one,label1,beast,NULL
1637100629,18d149d02b145bb3aeacea264dfd287a,6,0,experiment,NULL,PennController,6,_Trial_,Start,1637100425924,D,three,label1,electronics,NULL
1637100629,18d149d02b145bb3aeacea264dfd287a,6,0,experiment,NULL,SelectionGrid,test-phase,Selections,sub-smart_phone-2.jpg;sub-smart_phone-1.jpg|sub-smart_phone-2.jpg;true;2814:sub-smart_phone-1.jpg;true;3687,1637100425927,D,three,label1,electronics,NULL
1637100629,18d149d02b145bb3aeacea264dfd287a,6,0,experiment,NULL,PennController,6,_Trial_,End,1637100451655,D,three,label1,electronics,NULL
1637100629,18d149d02b145bb3aeacea264dfd287a,7,0,experiment,NULL,PennController,7,_Trial_,Start,1637100451656,D,one,label1,Filler-Color-red,NULL
1637100629,18d149d02b145bb3aeacea264dfd287a,7,0,experiment,NULL,SelectionGrid,test-phase,Selections,red-rect.jpg|red-rect.jpg;true;2358:red-rect.jpg;true;2882:red-rect.jpg;true;3473:red-rect.jpg;true;4462:red-rect.jpg;true;5155:red-rect.jpg;true;5873,1637100451660,D,one,label1,Filler-Color-red,NULL
1637100629,18d149d02b145bb3aeacea264dfd287a,7,0,experiment,NULL,PennController,7,_Trial_,End,1637100470622,D,one,label1,Filler-Color-red,NULL
1637100629,18d149d02b145bb3aeacea264dfd287a,8,0,experiment,NULL,PennController,8,_Trial_,Start,1637100470623,D,one,label2,fruit,NULL
1637100629,18d149d02b145bb3aeacea264dfd287a,8,0,experiment,NULL,SelectionGrid,test-phase,Selections,contrast-green_apple-1.jpg;contrast-green_apple-2.jpg;basic-apple-2.jpg|contrast-green_apple-1.jpg;true;2184:contrast-green_apple-2.jpg;true;3906:basic-apple-2.jpg;true;5447,1637100470626,D,one,label2,fruit,NULL
1637100629,18d149d02b145bb3aeacea264dfd287a,8,0,experiment,NULL,PennController,8,_Trial_,End,1637100497046,D,one,label2,fruit,NULL
1637100629,18d149d02b145bb3aeacea264dfd287a,9,0,experiment,NULL,PennController,9,_Trial_,Start,1637100497047,D,three,label2,furniture,NULL
1637100629,18d149d02b145bb3aeacea264dfd287a,9,0,experiment,NULL,SelectionGrid,test-phase,Selections,contrast-office_chair-2.jpg;contrast-office_chair-1.jpg|contrast-office_chair-2.jpg;true;3028:contrast-office_chair-1.jpg;true;3784,1637100497050,D,three,label2,furniture,NULL
1637100629,18d149d02b145bb3aeacea264dfd287a,9,0,experiment,NULL,PennController,9,_Trial_,End,1637100522300,D,three,label2,furniture,NULL
1637100629,18d149d02b145bb3aeacea264dfd287a,10,0,experiment,NULL,PennController,10,_Trial_,Start,1637100522302,D,one,label1,light,NULL
1637100629,18d149d02b145bb3aeacea264dfd287a,10,0,experiment,NULL,SelectionGrid,test-phase,Selections,sub-gooseneck_lamp-2.jpg;sub-gooseneck_lamp-1.jpg|sub-gooseneck_lamp-2.jpg;true;5375:sub-gooseneck_lamp-1.jpg;true;6014,1637100522305,D,one,label1,light,NULL
1637100629,18d149d02b145bb3aeacea264dfd287a,10,0,experiment,NULL,PennController,10,_Trial_,End,1637100549163,D,one,label1,light,NULL
1637100629,18d149d02b145bb3aeacea264dfd287a,11,0,experiment,NULL,PennController,11,_Trial_,Start,1637100549164,D,one,label1,Filler-Shape-triangle,NULL
1637100629,18d149d02b145bb3aeacea264dfd287a,11,0,experiment,NULL,SelectionGrid,test-phase,Selections,triangle-5.jpg;triangle-3.jpg;triangle-2.jpg;triangle-4.jpg;triangle-1.jpg|triangle-5.jpg;true;1924:triangle-3.jpg;true;2498:triangle-2.jpg;true;3073:triangle-4.jpg;true;3647:triangle-1.jpg;true;4254,1637100549167,D,one,label1,Filler-Shape-triangle,NULL
1637100629,18d149d02b145bb3aeacea264dfd287a,11,0,experiment,NULL,PennController,11,_Trial_,End,1637100576550,D,one,label1,Filler-Shape-triangle,NULL
1637100629,18d149d02b145bb3aeacea264dfd287a,12,0,experiment,NULL,PennController,12,_Trial_,Start,1637100576552,D,three,label1,vegetable,NULL
1637100629,18d149d02b145bb3aeacea264dfd287a,12,0,experiment,NULL,SelectionGrid,test-phase,Selections,sub-green_pepper-1.jpg;sub-green_pepper-2.jpg|sub-green_pepper-1.jpg;true;2276:sub-green_pepper-2.jpg;true;3149,1637100576555,D,three,label1,vegetable,NULL
1637100629,18d149d02b145bb3aeacea264dfd287a,12,0,experiment,NULL,PennController,12,_Trial_,End,1637100600742,D,three,label1,vegetable,NULL
1637100629,18d149d02b145bb3aeacea264dfd287a,13,0,experiment,NULL,PennController,13,_Trial_,Start,1637100600744,D,one,label2,vehicle,NULL
1637100629,18d149d02b145bb3aeacea264dfd287a,13,0,experiment,NULL,SelectionGrid,test-phase,Selections,contrast-van-2.jpg;contrast-van-1.jpg|contrast-van-2.jpg;true;2660:contrast-van-1.jpg;true;3566,1637100600747,D,one,label2,vehicle,NULL
1637100629,18d149d02b145bb3aeacea264dfd287a,13,0,experiment,NULL,PennController,13,_Trial_,End,1637100626140,D,one,label2,vehicle,NULL
# 13. window_size.
# 14. Comments.
1637100629,18d149d02b145bb3aeacea264dfd287a,14,0,end,NULL,PennController,2,_Trial_,Start,1637100626142,1357x691,NULL
1637100629,18d149d02b145bb3aeacea264dfd287a,14,0,end,NULL,PennController,2,_Trial_,End,1637100628312,1357x691,NULL
#
# Results on Tue, 16 Nov 2021 22:10:56 GMT
# USER AGENT: Mozilla/5.0 (Macintosh; Intel Mac OS X 10_15_7) AppleWebKit/537.36 (KHTML, like Gecko) Chrome/95.0.4638.69 Safari/537.36
# Design number was non-random = 28
#
# Columns below this comment are as follows:
# 1. Results reception time.
# 2. MD5 hash of participant's IP address.
# 3. Controller name.
# 4. Order number of item.
# 5. Inner element number.
# 6. Label.
# 7. Latin Square Group.
# 8. PennElementType.
# 9. PennElementName.
# 10. Parameter.
# 11. Value.
# 12. EventTime.
# 13. Comments.
1637100656,39baef515eba918af5346ff7a5fe959b,2,0,intro,NULL,PennController,0,_Trial_,Start,1637100403866,NULL
1637100656,39baef515eba918af5346ff7a5fe959b,2,0,intro,NULL,PennController,0,_Trial_,End,1637100406093,NULL
1637100656,39baef515eba918af5346ff7a5fe959b,3,0,beginning,NULL,PennController,1,_Trial_,Start,1637100406098,NULL
1637100656,39baef515eba918af5346ff7a5fe959b,3,0,beginning,NULL,PennController,1,_Trial_,End,1637100415652,NULL
# 13. group.
# 14. number.
# 15. target.
# 16. item.
# 17. Comments.
1637100656,39baef515eba918af5346ff7a5fe959b,4,0,experiment,NULL,PennController,4,_Trial_,Start,1637100415655,A,one,label1,animal,NULL
1637100656,39baef515eba918af5346ff7a5fe959b,4,0,experiment,NULL,SelectionGrid,test-phase,Selections,sub-dalmatian-1.jpg;sub-dalmatian-2.jpg|sub-dalmatian-1.jpg;true;3859:sub-dalmatian-2.jpg;true;5537,1637100415660,A,one,label1,animal,NULL
1637100656,39baef515eba918af5346ff7a5fe959b,4,0,experiment,NULL,PennController,4,_Trial_,End,1637100442596,A,one,label1,animal,NULL
1637100656,39baef515eba918af5346ff7a5fe959b,5,0,experiment,NULL,PennController,5,_Trial_,Start,1637100442598,A,three,label2,beast,NULL
1637100656,39baef515eba918af5346ff7a5fe959b,5,0,experiment,NULL,SelectionGrid,test-phase,Selections,sub-trex-2.jpg;sub-trex-1.jpg|sub-trex-2.jpg;true;3131:sub-trex-1.jpg;true;4625,1637100442601,A,three,label2,beast,NULL
1637100656,39baef515eba918af5346ff7a5fe959b,5,0,experiment,NULL,PennController,5,_Trial_,End,1637100469422,A,three,label2,beast,NULL
1637100656,39baef515eba918af5346ff7a5fe959b,6,0,experiment,NULL,PennController,6,_Trial_,Start,1637100469425,A,one,label2,electronics,NULL
1637100656,39baef515eba918af5346ff7a5fe959b,6,0,experiment,NULL,SelectionGrid,test-phase,Selections,contrast-flip_phone-1.jpg;contrast-flip_phone-2.jpg|contrast-flip_phone-1.jpg;true;3190:contrast-flip_phone-2.jpg;true;3925,1637100469429,A,one,label2,electronics,NULL
1637100656,39baef515eba918af5346ff7a5fe959b,6,0,experiment,NULL,PennController,6,_Trial_,End,1637100495465,A,one,label2,electronics,NULL
1637100656,39baef515eba918af5346ff7a5fe959b,7,0,experiment,NULL,PennController,7,_Trial_,Start,1637100495467,A,one,label1,Filler-Color-red,NULL
1637100656,39baef515eba918af5346ff7a5fe959b,7,0,experiment,NULL,SelectionGrid,test-phase,Selections,red-rect.jpg|red-rect.jpg;true;3180:red-rect.jpg;true;3564:red-rect.jpg;true;4090:red-rect.jpg;true;4809:red-rect.jpg;true;5337:red-rect.jpg;true;5672,1637100495471,A,one,label1,Filler-Color-red,NULL
1637100656,39baef515eba918af5346ff7a5fe959b,7,0,experiment,NULL,PennController,7,_Trial_,End,1637100514158,A,one,label1,Filler-Color-red,NULL
1637100656,39baef515eba918af5346ff7a5fe959b,8,0,experiment,NULL,PennController,8,_Trial_,Start,1637100514160,A,three,label1,fruit,NULL
1637100656,39baef515eba918af5346ff7a5fe959b,8,0,experiment,NULL,SelectionGrid,test-phase,Selections,sub-red_apple-1.jpg;sub-red_apple-2.jpg|sub-red_apple-1.jpg;true;2734:sub-red_apple-2.jpg;true;3677,1637100514164,A,three,label1,fruit,NULL
1637100656,39baef515eba918af5346ff7a5fe959b,8,0,experiment,NULL,PennController,8,_Trial_,End,1637100537973,A,three,label1,fruit,NULL
1637100656,39baef515eba918af5346ff7a5fe959b,9,0,experiment,NULL,PennController,9,_Trial_,Start,1637100537974,A,one,label1,furniture,NULL
1637100656,39baef515eba918af5346ff7a5fe959b,9,0,experiment,NULL,SelectionGrid,test-phase,Selections,sub-wooden_chair-2.jpg;sub-wooden_chair-1.jpg|sub-wooden_chair-2.jpg;true;2120:sub-wooden_chair-1.jpg;true;7208,1637100537978,A,one,label1,furniture,NULL
1637100656,39baef515eba918af5346ff7a5fe959b,9,0,experiment,NULL,PennController,9,_Trial_,End,1637100565657,A,one,label1,furniture,NULL
1637100656,39baef515eba918af5346ff7a5fe959b,10,0,experiment,NULL,PennController,10,_Trial_,Start,1637100565660,A,three,label2,light,NULL
1637100656,39baef515eba918af5346ff7a5fe959b,10,0,experiment,NULL,SelectionGrid,test-phase,Selections,contrast-desk_lamp-1.jpg;contrast-desk_lamp-2.jpg|contrast-desk_lamp-1.jpg;true;2186:contrast-desk_lamp-2.jpg;true;3016,1637100565664,A,three,label2,light,NULL
1637100656,39baef515eba918af5346ff7a5fe959b,10,0,experiment,NULL,PennController,10,_Trial_,End,1637100589287,A,three,label2,light,NULL
1637100656,39baef515eba918af5346ff7a5fe959b,11,0,experiment,NULL,PennController,11,_Trial_,Start,1637100589289,A,one,label1,Filler-Shape-triangle,NULL
1637100656,39baef515eba918af5346ff7a5fe959b,11,0,experiment,NULL,SelectionGrid,test-phase,Selections,triangle-5.jpg;triangle-3.jpg;triangle-2.jpg;triangle-4.jpg;triangle-1.jpg|triangle-5.jpg;true;2008:triangle-3.jpg;true;2463:triangle-2.jpg;true;2798:triangle-4.jpg;true;3214:triangle-1.jpg;true;3733,1637100589294,A,one,label1,Filler-Shape-triangle,NULL
1637100656,39baef515eba918af5346ff7a5fe959b,11,0,experiment,NULL,PennController,11,_Trial_,End,1637100605981,A,one,label1,Filler-Shape-triangle,NULL
1637100656,39baef515eba918af5346ff7a5fe959b,12,0,experiment,NULL,PennController,12,_Trial_,Start,1637100605982,A,one,label2,vegetable,NULL
1637100656,39baef515eba918af5346ff7a5fe959b,12,0,experiment,NULL,SelectionGrid,test-phase,Selections,contrast-red_pepper-1.jpg;contrast-red_pepper-2.jpg|contrast-red_pepper-1.jpg;true;2660:contrast-red_pepper-2.jpg;true;3323,1637100605987,A,one,label2,vegetable,NULL
1637100656,39baef515eba918af5346ff7a5fe959b,12,0,experiment,NULL,PennController,12,_Trial_,End,1637100629684,A,one,label2,vegetable,NULL
1637100656,39baef515eba918af5346ff7a5fe959b,13,0,experiment,NULL,PennController,13,_Trial_,Start,1637100629686,A,three,label1,vehicle,NULL
1637100656,39baef515eba918af5346ff7a5fe959b,13,0,experiment,NULL,SelectionGrid,test-phase,Selections,sub-racecar-2.jpg;sub-racecar-1.jpg|sub-racecar-2.jpg;true;2999:sub-racecar-1.jpg;true;3932,1637100629689,A,three,label1,vehicle,NULL
1637100656,39baef515eba918af5346ff7a5fe959b,13,0,experiment,NULL,PennController,13,_Trial_,End,1637100654113,A,three,label1,vehicle,NULL
# 13. window_size.
# 14. Comments.
1637100656,39baef515eba918af5346ff7a5fe959b,14,0,end,NULL,PennController,2,_Trial_,Start,1637100654114,1440x821,NULL
1637100656,39baef515eba918af5346ff7a5fe959b,14,0,end,NULL,PennController,2,_Trial_,End,1637100656053,1440x821,NULL
#
# Results on Tue, 16 Nov 2021 22:11:12 GMT
# USER AGENT: Mozilla/5.0 (Windows NT 10.0; Win64; x64) AppleWebKit/537.36 (KHTML, like Gecko) Chrome/95.0.4638.69 Safari/537.36
# Design number was non-random = 29
#
# Columns below this comment are as follows:
# 1. Results reception time.
# 2. MD5 hash of participant's IP address.
# 3. Controller name.
# 4. Order number of item.
# 5. Inner element number.
# 6. Label.
# 7. Latin Square Group.
# 8. PennElementType.
# 9. PennElementName.
# 10. Parameter.
# 11. Value.
# 12. EventTime.
# 13. Comments.
1637100672,8a95dcdfb7bdb1e0e8b6a07360c78f63,2,0,intro,NULL,PennController,0,_Trial_,Start,1637100413581,NULL
1637100672,8a95dcdfb7bdb1e0e8b6a07360c78f63,2,0,intro,NULL,PennController,0,_Trial_,End,1637100417510,NULL
1637100672,8a95dcdfb7bdb1e0e8b6a07360c78f63,3,0,beginning,NULL,PennController,1,_Trial_,Start,1637100417517,NULL
1637100672,8a95dcdfb7bdb1e0e8b6a07360c78f63,3,0,beginning,NULL,PennController,1,_Trial_,End,1637100426198,NULL
# 13. group.
# 14. number.
# 15. target.
# 16. item.
# 17. Comments.
1637100672,8a95dcdfb7bdb1e0e8b6a07360c78f63,4,0,experiment,NULL,PennController,4,_Trial_,Start,1637100426202,B,one,label2,animal,NULL
1637100672,8a95dcdfb7bdb1e0e8b6a07360c78f63,4,0,experiment,NULL,SelectionGrid,test-phase,Selections,contrast-corgi-2.jpg;contrast-corgi-1.jpg|contrast-corgi-2.jpg;true;3027:contrast-corgi-1.jpg;true;3637:basic-dog-2.jpg;true;5705:basic-dog-2.jpg;false;7751,1637100426218,B,one,label2,animal,NULL
1637100672,8a95dcdfb7bdb1e0e8b6a07360c78f63,4,0,experiment,NULL,PennController,4,_Trial_,End,1637100454244,B,one,label2,animal,NULL
1637100672,8a95dcdfb7bdb1e0e8b6a07360c78f63,5,0,experiment,NULL,PennController,5,_Trial_,Start,1637100454246,B,three,label1,beast,NULL
1637100672,8a95dcdfb7bdb1e0e8b6a07360c78f63,5,0,experiment,NULL,SelectionGrid,test-phase,Selections,sub-trex-2.jpg;sub-trex-1.jpg|sub-trex-2.jpg;true;4243:sub-trex-1.jpg;true;5311,1637100454252,B,three,label1,beast,NULL
1637100672,8a95dcdfb7bdb1e0e8b6a07360c78f63,5,0,experiment,NULL,PennController,5,_Trial_,End,1637100480960,B,three,label1,beast,NULL
1637100672,8a95dcdfb7bdb1e0e8b6a07360c78f63,6,0,experiment,NULL,PennController,6,_Trial_,Start,1637100480961,B,one,label1,electronics,NULL
1637100672,8a95dcdfb7bdb1e0e8b6a07360c78f63,6,0,experiment,NULL,SelectionGrid,test-phase,Selections,sub-smart_phone-2.jpg;sub-smart_phone-1.jpg|sub-smart_phone-2.jpg;true;2674:sub-smart_phone-1.jpg;true;8163,1637100480964,B,one,label1,electronics,NULL
1637100672,8a95dcdfb7bdb1e0e8b6a07360c78f63,6,0,experiment,NULL,PennController,6,_Trial_,End,1637100509711,B,one,label1,electronics,NULL
1637100672,8a95dcdfb7bdb1e0e8b6a07360c78f63,7,0,experiment,NULL,PennController,7,_Trial_,Start,1637100509713,B,one,label1,Filler-Color-red,NULL
1637100672,8a95dcdfb7bdb1e0e8b6a07360c78f63,7,0,experiment,NULL,SelectionGrid,test-phase,Selections,red-rect.jpg|red-rect.jpg;true;1718:red-rect.jpg;true;2464:red-rect.jpg;true;2948:red-rect.jpg;true;3950:red-rect.jpg;true;4438:red-rect.jpg;true;4970,1637100509717,B,one,label1,Filler-Color-red,NULL
1637100672,8a95dcdfb7bdb1e0e8b6a07360c78f63,7,0,experiment,NULL,PennController,7,_Trial_,End,1637100527494,B,one,label1,Filler-Color-red,NULL
1637100672,8a95dcdfb7bdb1e0e8b6a07360c78f63,8,0,experiment,NULL,PennController,8,_Trial_,Start,1637100527495,B,three,label2,fruit,NULL
1637100672,8a95dcdfb7bdb1e0e8b6a07360c78f63,8,0,experiment,NULL,SelectionGrid,test-phase,Selections,basic-apple-1.jpg;contrast-green_apple-1.jpg;contrast-green_apple-2.jpg;basic-apple-2.jpg|basic-apple-1.jpg;true;1521:contrast-green_apple-1.jpg;true;2211:contrast-green_apple-2.jpg;true;3137:basic-apple-2.jpg;true;3550,1637100527499,B,three,label2,fruit,NULL
1637100672,8a95dcdfb7bdb1e0e8b6a07360c78f63,8,0,experiment,NULL,PennController,8,_Trial_,End,1637100552364,B,three,label2,fruit,NULL
1637100672,8a95dcdfb7bdb1e0e8b6a07360c78f63,9,0,experiment,NULL,PennController,9,_Trial_,Start,1637100552365,B,one,label2,furniture,NULL
1637100672,8a95dcdfb7bdb1e0e8b6a07360c78f63,9,0,experiment,NULL,SelectionGrid,test-phase,Selections,contrast-office_chair-2.jpg;contrast-office_chair-1.jpg|contrast-office_chair-2.jpg;true;2131:contrast-office_chair-1.jpg;true;3207,1637100552369,B,one,label2,furniture,NULL
1637100672,8a95dcdfb7bdb1e0e8b6a07360c78f63,9,0,experiment,NULL,PennController,9,_Trial_,End,1637100576402,B,one,label2,furniture,NULL
1637100672,8a95dcdfb7bdb1e0e8b6a07360c78f63,10,0,experiment,NULL,PennController,10,_Trial_,Start,1637100576403,B,three,label1,light,NULL
1637100672,8a95dcdfb7bdb1e0e8b6a07360c78f63,10,0,experiment,NULL,SelectionGrid,test-phase,Selections,sub-gooseneck_lamp-1.jpg;sub-gooseneck_lamp-2.jpg|sub-gooseneck_lamp-1.jpg;true;2329:sub-gooseneck_lamp-2.jpg;true;3062,1637100576406,B,three,label1,light,NULL
1637100672,8a95dcdfb7bdb1e0e8b6a07360c78f63,10,0,experiment,NULL,PennController,10,_Trial_,End,1637100600797,B,three,label1,light,NULL
1637100672,8a95dcdfb7bdb1e0e8b6a07360c78f63,11,0,experiment,NULL,PennController,11,_Trial_,Start,1637100600800,B,one,label1,Filler-Shape-triangle,NULL
1637100672,8a95dcdfb7bdb1e0e8b6a07360c78f63,11,0,experiment,NULL,SelectionGrid,test-phase,Selections,triangle-5.jpg;triangle-3.jpg;triangle-2.jpg;triangle-4.jpg;triangle-1.jpg|triangle-5.jpg;true;2786:triangle-3.jpg;true;3485:triangle-2.jpg;true;4807:triangle-4.jpg;true;5344:triangle-1.jpg;true;6951,1637100600810,B,one,label1,Filler-Shape-triangle,NULL
1637100672,8a95dcdfb7bdb1e0e8b6a07360c78f63,11,0,experiment,NULL,PennController,11,_Trial_,End,1637100620833,B,one,label1,Filler-Shape-triangle,NULL
1637100672,8a95dcdfb7bdb1e0e8b6a07360c78f63,12,0,experiment,NULL,PennController,12,_Trial_,Start,1637100620834,B,one,label1,vegetable,NULL
1637100672,8a95dcdfb7bdb1e0e8b6a07360c78f63,12,0,experiment,NULL,SelectionGrid,test-phase,Selections,sub-green_pepper-2.jpg;sub-green_pepper-1.jpg|sub-green_pepper-2.jpg;true;2371:sub-green_pepper-1.jpg;true;3452,1637100620837,B,one,label1,vegetable,NULL
1637100672,8a95dcdfb7bdb1e0e8b6a07360c78f63,12,0,experiment,NULL,PennController,12,_Trial_,End,1637100644244,B,one,label1,vegetable,NULL
1637100672,8a95dcdfb7bdb1e0e8b6a07360c78f63,13,0,experiment,NULL,PennController,13,_Trial_,Start,1637100644246,B,three,label2,vehicle,NULL
1637100672,8a95dcdfb7bdb1e0e8b6a07360c78f63,13,0,experiment,NULL,SelectionGrid,test-phase,Selections,contrast-van-2.jpg;contrast-van-1.jpg|contrast-van-2.jpg;true;2128:contrast-van-1.jpg;true;2778,1637100644249,B,three,label2,vehicle,NULL
1637100672,8a95dcdfb7bdb1e0e8b6a07360c78f63,13,0,experiment,NULL,PennController,13,_Trial_,End,1637100668857,B,three,label2,vehicle,NULL
# 13. window_size.
# 14. Comments.
1637100672,8a95dcdfb7bdb1e0e8b6a07360c78f63,14,0,end,NULL,PennController,2,_Trial_,Start,1637100668858,1536x726,NULL
1637100672,8a95dcdfb7bdb1e0e8b6a07360c78f63,14,0,end,NULL,PennController,2,_Trial_,End,1637100671194,1536x726,NULL
#
# Results on Tue, 16 Nov 2021 22:12:05 GMT
# USER AGENT: Mozilla/5.0 (Windows NT 6.3; WOW64) AppleWebKit/537.36 (KHTML, like Gecko) Chrome/95.0.4638.69 Safari/537.36
# Design number was non-random = 30
#
# Columns below this comment are as follows:
# 1. Results reception time.
# 2. MD5 hash of participant's IP address.
# 3. Controller name.
# 4. Order number of item.
# 5. Inner element number.
# 6. Label.
# 7. Latin Square Group.
# 8. PennElementType.
# 9. PennElementName.
# 10. Parameter.
# 11. Value.
# 12. EventTime.
# 13. Comments.
1637100725,9d0e038bb6edae3712ca1a33e54cddea,2,0,intro,NULL,PennController,0,_Trial_,Start,1637100428464,NULL
1637100725,9d0e038bb6edae3712ca1a33e54cddea,2,0,intro,NULL,PennController,0,_Trial_,End,1637100433134,NULL
1637100725,9d0e038bb6edae3712ca1a33e54cddea,3,0,beginning,NULL,PennController,1,_Trial_,Start,1637100433150,NULL
1637100725,9d0e038bb6edae3712ca1a33e54cddea,3,0,beginning,NULL,PennController,1,_Trial_,End,1637100443193,NULL
# 13. group.
# 14. number.
# 15. target.
# 16. item.
# 17. Comments.
1637100725,9d0e038bb6edae3712ca1a33e54cddea,4,0,experiment,NULL,PennController,4,_Trial_,Start,1637100443196,C,three,label1,animal,NULL
1637100725,9d0e038bb6edae3712ca1a33e54cddea,4,0,experiment,NULL,SelectionGrid,test-phase,Selections,sub-dalmatian-1.jpg;sub-dalmatian-2.jpg|sub-dalmatian-1.jpg;true;5054:sub-dalmatian-2.jpg;true;5763,1637100443207,C,three,label1,animal,NULL
1637100725,9d0e038bb6edae3712ca1a33e54cddea,4,0,experiment,NULL,PennController,4,_Trial_,End,1637100470549,C,three,label1,animal,NULL
1637100725,9d0e038bb6edae3712ca1a33e54cddea,5,0,experiment,NULL,PennController,5,_Trial_,Start,1637100470551,C,one,label2,beast,NULL
1637100725,9d0e038bb6edae3712ca1a33e54cddea,5,0,experiment,NULL,SelectionGrid,test-phase,Selections,contrast-triceratops-2.jpg;contrast-triceratops-1.jpg|contrast-triceratops-2.jpg;true;5151:contrast-triceratops-1.jpg;true;11743,1637100470557,C,one,label2,beast,NULL
1637100725,9d0e038bb6edae3712ca1a33e54cddea,5,0,experiment,NULL,PennController,5,_Trial_,End,1637100502603,C,one,label2,beast,NULL
1637100725,9d0e038bb6edae3712ca1a33e54cddea,6,0,experiment,NULL,PennController,6,_Trial_,Start,1637100502606,C,three,label2,electronics,NULL
1637100725,9d0e038bb6edae3712ca1a33e54cddea,6,0,experiment,NULL,SelectionGrid,test-phase,Selections,contrast-flip_phone-2.jpg;contrast-flip_phone-1.jpg|contrast-flip_phone-2.jpg;true;3719:contrast-flip_phone-1.jpg;true;5439,1637100502612,C,three,label2,electronics,NULL
1637100725,9d0e038bb6edae3712ca1a33e54cddea,6,0,experiment,NULL,PennController,6,_Trial_,End,1637100532928,C,three,label2,electronics,NULL
1637100725,9d0e038bb6edae3712ca1a33e54cddea,7,0,experiment,NULL,PennController,7,_Trial_,Start,1637100532931,C,one,label1,Filler-Color-red,NULL
1637100725,9d0e038bb6edae3712ca1a33e54cddea,7,0,experiment,NULL,SelectionGrid,test-phase,Selections,red-rect.jpg|red-rect.jpg;true;2972:red-rect.jpg;true;3524:red-rect.jpg;true;4228:red-rect.jpg;true;5036:red-rect.jpg;true;5524:red-rect.jpg;true;5964,1637100532936,C,one,label1,Filler-Color-red,NULL
1637100725,9d0e038bb6edae3712ca1a33e54cddea,7,0,experiment,NULL,PennController,7,_Trial_,End,1637100551607,C,one,label1,Filler-Color-red,NULL
1637100725,9d0e038bb6edae3712ca1a33e54cddea,8,0,experiment,NULL,PennController,8,_Trial_,Start,1637100551609,C,one,label1,fruit,NULL
1637100725,9d0e038bb6edae3712ca1a33e54cddea,8,0,experiment,NULL,SelectionGrid,test-phase,Selections,sub-red_apple-2.jpg;sub-red_apple-1.jpg|sub-red_apple-2.jpg;true;4310:sub-red_apple-1.jpg;true;5128,1637100551615,C,one,label1,fruit,NULL
1637100725,9d0e038bb6edae3712ca1a33e54cddea,8,0,experiment,NULL,PennController,8,_Trial_,End,1637100578040,C,one,label1,fruit,NULL
1637100725,9d0e038bb6edae3712ca1a33e54cddea,9,0,experiment,NULL,PennController,9,_Trial_,Start,1637100578043,C,three,label1,furniture,NULL
1637100725,9d0e038bb6edae3712ca1a33e54cddea,9,0,experiment,NULL,SelectionGrid,test-phase,Selections,sub-wooden_chair-2.jpg;sub-wooden_chair-1.jpg|contrast-office_chair-1.jpg;true;9971:contrast-office_chair-2.jpg;true;17419:contrast-office_chair-2.jpg;false;20611:contrast-office_chair-1.jpg;false;21154:sub-wooden_chair-2.jpg;true;23082:sub-wooden_chair-1.jpg;true;23682,1637100578049,C,three,label1,furniture,NULL
1637100725,9d0e038bb6edae3712ca1a33e54cddea,9,0,experiment,NULL,PennController,9,_Trial_,End,1637100623083,C,three,label1,furniture,NULL
1637100725,9d0e038bb6edae3712ca1a33e54cddea,10,0,experiment,NULL,PennController,10,_Trial_,Start,1637100623086,C,one,label2,light,NULL
1637100725,9d0e038bb6edae3712ca1a33e54cddea,10,0,experiment,NULL,SelectionGrid,test-phase,Selections,contrast-desk_lamp-1.jpg;contrast-desk_lamp-2.jpg|contrast-desk_lamp-1.jpg;true;3567:contrast-desk_lamp-2.jpg;true;4686,1637100623092,C,one,label2,light,NULL
1637100725,9d0e038bb6edae3712ca1a33e54cddea,10,0,experiment,NULL,PennController,10,_Trial_,End,1637100650005,C,one,label2,light,NULL
1637100725,9d0e038bb6edae3712ca1a33e54cddea,11,0,experiment,NULL,PennController,11,_Trial_,Start,1637100650009,C,one,label1,Filler-Shape-triangle,NULL
1637100725,9d0e038bb6edae3712ca1a33e54cddea,11,0,experiment,NULL,SelectionGrid,test-phase,Selections,triangle-5.jpg;triangle-3.jpg;triangle-2.jpg;triangle-4.jpg;triangle-1.jpg|triangle-5.jpg;true;3638:triangle-3.jpg;true;4070:triangle-2.jpg;true;4542:triangle-4.jpg;true;5094:triangle-1.jpg;true;5598,1637100650016,C,one,label1,Filler-Shape-triangle,NULL
1637100725,9d0e038bb6edae3712ca1a33e54cddea,11,0,experiment,NULL,PennController,11,_Trial_,End,1637100668731,C,one,label1,Filler-Shape-triangle,NULL
1637100725,9d0e038bb6edae3712ca1a33e54cddea,12,0,experiment,NULL,PennController,12,_Trial_,Start,1637100668733,C,three,label2,vegetable,NULL
1637100725,9d0e038bb6edae3712ca1a33e54cddea,12,0,experiment,NULL,SelectionGrid,test-phase,Selections,contrast-red_pepper-2.jpg;contrast-red_pepper-1.jpg|contrast-red_pepper-2.jpg;true;3042:contrast-red_pepper-1.jpg;true;4394,1637100668741,C,three,label2,vegetable,NULL
1637100725,9d0e038bb6edae3712ca1a33e54cddea,12,0,experiment,NULL,PennController,12,_Trial_,End,1637100693172,C,three,label2,vegetable,NULL
1637100725,9d0e038bb6edae3712ca1a33e54cddea,13,0,experiment,NULL,PennController,13,_Trial_,Start,1637100693174,C,one,label1,vehicle,NULL
1637100725,9d0e038bb6edae3712ca1a33e54cddea,13,0,experiment,NULL,SelectionGrid,test-phase,Selections,sub-racecar-1.jpg;sub-racecar-2.jpg|sub-racecar-1.jpg;true;4540:sub-racecar-2.jpg;true;6964,1637100693179,C,one,label1,vehicle,NULL
1637100725,9d0e038bb6edae3712ca1a33e54cddea,13,0,experiment,NULL,PennController,13,_Trial_,End,1637100723146,C,one,label1,vehicle,NULL
# 13. window_size.
# 14. Comments.
1637100725,9d0e038bb6edae3712ca1a33e54cddea,14,0,end,NULL,PennController,2,_Trial_,Start,1637100723148,1920x969,NULL
1637100725,9d0e038bb6edae3712ca1a33e54cddea,14,0,end,NULL,PennController,2,_Trial_,End,1637100725057,1920x969,NULL
#
# Results on Tue, 16 Nov 2021 22:13:17 GMT
# USER AGENT: Mozilla/5.0 (Macintosh; Intel Mac OS X 10_15_7) AppleWebKit/537.36 (KHTML, like Gecko) Chrome/95.0.4638.69 Safari/537.36
# Design number was non-random = 32
#
# Columns below this comment are as follows:
# 1. Results reception time.
# 2. MD5 hash of participant's IP address.
# 3. Controller name.
# 4. Order number of item.
# 5. Inner element number.
# 6. Label.
# 7. Latin Square Group.
# 8. PennElementType.
# 9. PennElementName.
# 10. Parameter.
# 11. Value.
# 12. EventTime.
# 13. Comments.
1637100797,fff2a888770b6cfd34e9d1b120abc2a1,2,0,intro,NULL,PennController,0,_Trial_,Start,1637100525582,NULL
1637100797,fff2a888770b6cfd34e9d1b120abc2a1,2,0,intro,NULL,PennController,0,_Trial_,End,1637100534051,NULL
1637100797,fff2a888770b6cfd34e9d1b120abc2a1,3,0,beginning,NULL,PennController,1,_Trial_,Start,1637100534062,NULL
1637100797,fff2a888770b6cfd34e9d1b120abc2a1,3,0,beginning,NULL,PennController,1,_Trial_,End,1637100540689,NULL
# 13. group.
# 14. number.
# 15. target.
# 16. item.
# 17. Comments.
1637100797,fff2a888770b6cfd34e9d1b120abc2a1,4,0,experiment,NULL,PennController,4,_Trial_,Start,1637100540692,A,one,label1,animal,NULL
1637100797,fff2a888770b6cfd34e9d1b120abc2a1,4,0,experiment,NULL,SelectionGrid,test-phase,Selections,sub-dalmatian-1.jpg;sub-dalmatian-2.jpg|sub-dalmatian-1.jpg;true;4350:sub-dalmatian-2.jpg;true;5627,1637100540701,A,one,label1,animal,NULL
1637100797,fff2a888770b6cfd34e9d1b120abc2a1,4,0,experiment,NULL,PennController,4,_Trial_,End,1637100566963,A,one,label1,animal,NULL
1637100797,fff2a888770b6cfd34e9d1b120abc2a1,5,0,experiment,NULL,PennController,5,_Trial_,Start,1637100566965,A,three,label2,beast,NULL
1637100797,fff2a888770b6cfd34e9d1b120abc2a1,5,0,experiment,NULL,SelectionGrid,test-phase,Selections,contrast-triceratops-1.jpg;contrast-triceratops-2.jpg;basic-dinosaur-1.jpg;sup-beast-1.jpg|contrast-triceratops-1.jpg;true;2334:contrast-triceratops-2.jpg;true;5932:basic-dinosaur-1.jpg;true;8917:sup-beast-1.jpg;true;10238,1637100566972,A,three,label2,beast,NULL
1637100797,fff2a888770b6cfd34e9d1b120abc2a1,5,0,experiment,NULL,PennController,5,_Trial_,End,1637100601447,A,three,label2,beast,NULL
1637100797,fff2a888770b6cfd34e9d1b120abc2a1,6,0,experiment,NULL,PennController,6,_Trial_,Start,1637100601451,A,one,label2,electronics,NULL
1637100797,fff2a888770b6cfd34e9d1b120abc2a1,6,0,experiment,NULL,SelectionGrid,test-phase,Selections,contrast-flip_phone-1.jpg;contrast-flip_phone-2.jpg|contrast-flip_phone-1.jpg;true;3251:contrast-flip_phone-2.jpg;true;3883,1637100601458,A,one,label2,electronics,NULL
1637100797,fff2a888770b6cfd34e9d1b120abc2a1,6,0,experiment,NULL,PennController,6,_Trial_,End,1637100628528,A,one,label2,electronics,NULL
1637100797,fff2a888770b6cfd34e9d1b120abc2a1,7,0,experiment,NULL,PennController,7,_Trial_,Start,1637100628530,A,one,label1,Filler-Color-red,NULL
1637100797,fff2a888770b6cfd34e9d1b120abc2a1,7,0,experiment,NULL,SelectionGrid,test-phase,Selections,red-rect.jpg|red-rect.jpg;true;1699:red-rect.jpg;true;2156:red-rect.jpg;true;2748:red-rect.jpg;true;3363:red-rect.jpg;true;3891:red-rect.jpg;true;4459,1637100628536,A,one,label1,Filler-Color-red,NULL
1637100797,fff2a888770b6cfd34e9d1b120abc2a1,7,0,experiment,NULL,PennController,7,_Trial_,End,1637100646187,A,one,label1,Filler-Color-red,NULL
1637100797,fff2a888770b6cfd34e9d1b120abc2a1,8,0,experiment,NULL,PennController,8,_Trial_,Start,1637100646189,A,three,label1,fruit,NULL
1637100797,fff2a888770b6cfd34e9d1b120abc2a1,8,0,experiment,NULL,SelectionGrid,test-phase,Selections,sub-red_apple-1.jpg;sub-red_apple-2.jpg|sub-red_apple-1.jpg;true;1882:sub-red_apple-2.jpg;true;2863,1637100646195,A,three,label1,fruit,NULL
1637100797,fff2a888770b6cfd34e9d1b120abc2a1,8,0,experiment,NULL,PennController,8,_Trial_,End,1637100671862,A,three,label1,fruit,NULL
1637100797,fff2a888770b6cfd34e9d1b120abc2a1,9,0,experiment,NULL,PennController,9,_Trial_,Start,1637100671865,A,one,label1,furniture,NULL
1637100797,fff2a888770b6cfd34e9d1b120abc2a1,9,0,experiment,NULL,SelectionGrid,test-phase,Selections,sub-wooden_chair-2.jpg;sub-wooden_chair-1.jpg|sub-wooden_chair-2.jpg;true;2288:sub-wooden_chair-1.jpg;true;4549,1637100671871,A,one,label1,furniture,NULL
1637100797,fff2a888770b6cfd34e9d1b120abc2a1,9,0,experiment,NULL,PennController,9,_Trial_,End,1637100699031,A,one,label1,furniture,NULL
1637100797,fff2a888770b6cfd34e9d1b120abc2a1,10,0,experiment,NULL,PennController,10,_Trial_,Start,1637100699033,A,three,label2,light,NULL
1637100797,fff2a888770b6cfd34e9d1b120abc2a1,10,0,experiment,NULL,SelectionGrid,test-phase,Selections,contrast-desk_lamp-1.jpg;contrast-desk_lamp-2.jpg|contrast-desk_lamp-1.jpg;true;4061:contrast-desk_lamp-2.jpg;true;5003,1637100699040,A,three,label2,light,NULL
1637100797,fff2a888770b6cfd34e9d1b120abc2a1,10,0,experiment,NULL,PennController,10,_Trial_,End,1637100724488,A,three,label2,light,NULL
1637100797,fff2a888770b6cfd34e9d1b120abc2a1,11,0,experiment,NULL,PennController,11,_Trial_,Start,1637100724491,A,one,label1,Filler-Shape-triangle,NULL
1637100797,fff2a888770b6cfd34e9d1b120abc2a1,11,0,experiment,NULL,SelectionGrid,test-phase,Selections,triangle-5.jpg;triangle-3.jpg;triangle-2.jpg;triangle-4.jpg;triangle-1.jpg|triangle-5.jpg;true;2227:triangle-3.jpg;true;2643:triangle-2.jpg;true;3088:triangle-4.jpg;true;3551:triangle-1.jpg;true;4063,1637100724497,A,one,label1,Filler-Shape-triangle,NULL
1637100797,fff2a888770b6cfd34e9d1b120abc2a1,11,0,experiment,NULL,PennController,11,_Trial_,End,1637100742153,A,one,label1,Filler-Shape-triangle,NULL
1637100797,fff2a888770b6cfd34e9d1b120abc2a1,12,0,experiment,NULL,PennController,12,_Trial_,Start,1637100742155,A,one,label2,vegetable,NULL
1637100797,fff2a888770b6cfd34e9d1b120abc2a1,12,0,experiment,NULL,SelectionGrid,test-phase,Selections,contrast-red_pepper-2.jpg;contrast-red_pepper-1.jpg|contrast-red_pepper-2.jpg;true;4291:contrast-red_pepper-1.jpg;true;6545,1637100742161,A,one,label2,vegetable,NULL
1637100797,fff2a888770b6cfd34e9d1b120abc2a1,12,0,experiment,NULL,PennController,12,_Trial_,End,1637100768925,A,one,label2,vegetable,NULL
1637100797,fff2a888770b6cfd34e9d1b120abc2a1,13,0,experiment,NULL,PennController,13,_Trial_,Start,1637100768927,A,three,label1,vehicle,NULL
1637100797,fff2a888770b6cfd34e9d1b120abc2a1,13,0,experiment,NULL,SelectionGrid,test-phase,Selections,sub-racecar-2.jpg;sub-racecar-1.jpg|sub-racecar-2.jpg;true;4070:sub-racecar-1.jpg;true;5190,1637100768933,A,three,label1,vehicle,NULL
1637100797,fff2a888770b6cfd34e9d1b120abc2a1,13,0,experiment,NULL,PennController,13,_Trial_,End,1637100795643,A,three,label1,vehicle,NULL
# 13. window_size.
# 14. Comments.
1637100797,fff2a888770b6cfd34e9d1b120abc2a1,14,0,end,NULL,PennController,2,_Trial_,Start,1637100795646,1280x670,NULL
1637100797,fff2a888770b6cfd34e9d1b120abc2a1,14,0,end,NULL,PennController,2,_Trial_,End,1637100797130,1280x670,NULL
#
# Results on Tue, 16 Nov 2021 22:13:35 GMT
# USER AGENT: Mozilla/5.0 (Macintosh; Intel Mac OS X 10.15; rv:94.0) Gecko/20100101 Firefox/94.0
# Design number was non-random = 33
#
# Columns below this comment are as follows:
# 1. Results reception time.
# 2. MD5 hash of participant's IP address.
# 3. Controller name.
# 4. Order number of item.
# 5. Inner element number.
# 6. Label.
# 7. Latin Square Group.
# 8. PennElementType.
# 9. PennElementName.
# 10. Parameter.
# 11. Value.
# 12. EventTime.
# 13. Comments.
1637100815,6ee3cdb1e3a407fbb7602128cf778822,2,0,intro,NULL,PennController,0,_Trial_,Start,1637100541914,NULL
1637100815,6ee3cdb1e3a407fbb7602128cf778822,2,0,intro,NULL,PennController,0,_Trial_,End,1637100546074,NULL
1637100815,6ee3cdb1e3a407fbb7602128cf778822,3,0,beginning,NULL,PennController,1,_Trial_,Start,1637100546083,NULL
1637100815,6ee3cdb1e3a407fbb7602128cf778822,3,0,beginning,NULL,PennController,1,_Trial_,End,1637100564644,NULL
# 13. group.
# 14. number.
# 15. target.
# 16. item.
# 17. Comments.
1637100815,6ee3cdb1e3a407fbb7602128cf778822,4,0,experiment,NULL,PennController,4,_Trial_,Start,1637100564646,B,one,label2,animal,NULL
1637100815,6ee3cdb1e3a407fbb7602128cf778822,4,0,experiment,NULL,SelectionGrid,test-phase,Selections,contrast-corgi-2.jpg;contrast-corgi-1.jpg|contrast-corgi-2.jpg;true;4863:contrast-corgi-1.jpg;true;6591,1637100564656,B,one,label2,animal,NULL
1637100815,6ee3cdb1e3a407fbb7602128cf778822,4,0,experiment,NULL,PennController,4,_Trial_,End,1637100591904,B,one,label2,animal,NULL
1637100815,6ee3cdb1e3a407fbb7602128cf778822,5,0,experiment,NULL,PennController,5,_Trial_,Start,1637100591906,B,three,label1,beast,NULL
1637100815,6ee3cdb1e3a407fbb7602128cf778822,5,0,experiment,NULL,SelectionGrid,test-phase,Selections,sub-trex-1.jpg;sub-trex-2.jpg|sub-trex-1.jpg;true;5386:sub-trex-2.jpg;true;7249,1637100591914,B,three,label1,beast,NULL
1637100815,6ee3cdb1e3a407fbb7602128cf778822,5,0,experiment,NULL,PennController,5,_Trial_,End,1637100620446,B,three,label1,beast,NULL
1637100815,6ee3cdb1e3a407fbb7602128cf778822,6,0,experiment,NULL,PennController,6,_Trial_,Start,1637100620448,B,one,label1,electronics,NULL
1637100815,6ee3cdb1e3a407fbb7602128cf778822,6,0,experiment,NULL,SelectionGrid,test-phase,Selections,sub-smart_phone-2.jpg;sub-smart_phone-1.jpg|sub-smart_phone-2.jpg;true;2740:sub-smart_phone-1.jpg;true;3691,1637100620456,B,one,label1,electronics,NULL
1637100815,6ee3cdb1e3a407fbb7602128cf778822,6,0,experiment,NULL,PennController,6,_Trial_,End,1637100648582,B,one,label1,electronics,NULL
1637100815,6ee3cdb1e3a407fbb7602128cf778822,7,0,experiment,NULL,PennController,7,_Trial_,Start,1637100648584,B,one,label1,Filler-Color-red,NULL
1637100815,6ee3cdb1e3a407fbb7602128cf778822,7,0,experiment,NULL,SelectionGrid,test-phase,Selections,red-rect.jpg|red-rect.jpg;true;2428:red-rect.jpg;true;2910:red-rect.jpg;true;3492:red-rect.jpg;true;4018:red-rect.jpg;true;4688:red-rect.jpg;true;5098,1637100648592,B,one,label1,Filler-Color-red,NULL
1637100815,6ee3cdb1e3a407fbb7602128cf778822,7,0,experiment,NULL,PennController,7,_Trial_,End,1637100666650,B,one,label1,Filler-Color-red,NULL
1637100815,6ee3cdb1e3a407fbb7602128cf778822,8,0,experiment,NULL,PennController,8,_Trial_,Start,1637100666654,B,three,label2,fruit,NULL
1637100815,6ee3cdb1e3a407fbb7602128cf778822,8,0,experiment,NULL,SelectionGrid,test-phase,Selections,contrast-green_apple-1.jpg;contrast-green_apple-2.jpg|contrast-green_apple-1.jpg;true;2688:contrast-green_apple-2.jpg;true;3486,1637100666662,B,three,label2,fruit,NULL
1637100815,6ee3cdb1e3a407fbb7602128cf778822,8,0,experiment,NULL,PennController,8,_Trial_,End,1637100690463,B,three,label2,fruit,NULL
1637100815,6ee3cdb1e3a407fbb7602128cf778822,9,0,experiment,NULL,PennController,9,_Trial_,Start,1637100690465,B,one,label2,furniture,NULL
1637100815,6ee3cdb1e3a407fbb7602128cf778822,9,0,experiment,NULL,SelectionGrid,test-phase,Selections,contrast-office_chair-2.jpg;contrast-office_chair-1.jpg|contrast-office_chair-2.jpg;true;2377:contrast-office_chair-1.jpg;true;3119,1637100690473,B,one,label2,furniture,NULL
1637100815,6ee3cdb1e3a407fbb7602128cf778822,9,0,experiment,NULL,PennController,9,_Trial_,End,1637100714139,B,one,label2,furniture,NULL
1637100815,6ee3cdb1e3a407fbb7602128cf778822,10,0,experiment,NULL,PennController,10,_Trial_,Start,1637100714141,B,three,label1,light,NULL
1637100815,6ee3cdb1e3a407fbb7602128cf778822,10,0,experiment,NULL,SelectionGrid,test-phase,Selections,sub-gooseneck_lamp-1.jpg;sub-gooseneck_lamp-2.jpg|sub-gooseneck_lamp-1.jpg;true;3109:sub-gooseneck_lamp-2.jpg;true;3886,1637100714148,B,three,label1,light,NULL
1637100815,6ee3cdb1e3a407fbb7602128cf778822,10,0,experiment,NULL,PennController,10,_Trial_,End,1637100738962,B,three,label1,light,NULL
