#
# Results on Tue, 23 Nov 2021 17:26:14 GMT
# USER AGENT: Mozilla/5.0 (Windows NT 10.0; Win64; x64) AppleWebKit/537.36 (KHTML, like Gecko) Chrome/96.0.4664.45 Safari/537.36
# Design number was non-random = 5
#
# Columns below this comment are as follows:
# 1. Results reception time.
# 2. MD5 hash of participant's IP address.
# 3. Controller name.
# 4. Order number of item.
# 5. Inner element number.
# 6. Label.
# 7. Latin Square Group.
# 8. PennElementType.
# 9. PennElementName.
# 10. Parameter.
# 11. Value.
# 12. EventTime.
# 13. Comments.
1637688374,c0f4d1afd9d1cc00a8f683f2284eadc4,2,0,intro,NULL,PennController,0,_Trial_,Start,1637688065111,NULL
1637688374,c0f4d1afd9d1cc00a8f683f2284eadc4,2,0,intro,NULL,PennController,0,_Trial_,End,1637688069981,NULL
1637688374,c0f4d1afd9d1cc00a8f683f2284eadc4,3,0,beginning,NULL,PennController,1,_Trial_,Start,1637688069986,NULL
1637688374,c0f4d1afd9d1cc00a8f683f2284eadc4,3,0,beginning,NULL,PennController,1,_Trial_,End,1637688078667,NULL
# 13. group.
# 14. labelled.
# 15. target.
# 16. item.
# 17. Comments.
1637688374,c0f4d1afd9d1cc00a8f683f2284eadc4,4,0,experiment,NULL,PennController,4,_Trial_,Start,1637688078669,B,FALSE,label2,animal,NULL
1637688374,c0f4d1afd9d1cc00a8f683f2284eadc4,4,0,experiment,NULL,SelectionGrid,test-phase,Selections,sub-dalmatian-2.jpg;basic-dog-2.jpg;contrast-corgi-2.jpg;contrast-corgi-1.jpg;basic-dog-3.jpg;sup-animal-3.jpg;basic-dog-1.jpg;sub-dalmatian-1.jpg|sub-dalmatian-2.jpg;true;3912:basic-dog-2.jpg;true;4256:contrast-corgi-2.jpg;true;4572:contrast-corgi-1.jpg;true;4964:basic-dog-3.jpg;true;5248:sup-animal-3.jpg;true;5895:basic-dog-1.jpg;true;8921:sub-dalmatian-1.jpg;true;11507,1637688078673,B,FALSE,label2,animal,NULL
1637688374,c0f4d1afd9d1cc00a8f683f2284eadc4,4,0,experiment,NULL,PennController,4,_Trial_,End,1637688112491,B,FALSE,label2,animal,NULL
1637688374,c0f4d1afd9d1cc00a8f683f2284eadc4,5,0,experiment,NULL,PennController,5,_Trial_,Start,1637688112492,B,FALSE,label1,beast,NULL
1637688374,c0f4d1afd9d1cc00a8f683f2284eadc4,5,0,experiment,NULL,SelectionGrid,test-phase,Selections,basic-dinosaur-2.jpg;basic-dinosaur-1.jpg;contrast-triceratops-1.jpg;sub-trex-1.jpg;sub-trex-2.jpg;sup-beast-3.jpg;contrast-triceratops-2.jpg;sup-beast-2.jpg;basic-dinosaur-3.jpg|basic-dinosaur-2.jpg;true;4427:basic-dinosaur-1.jpg;true;5414:contrast-triceratops-1.jpg;true;5674:sub-trex-1.jpg;true;6186:sub-trex-2.jpg;true;6816:sup-beast-3.jpg;true;7402:contrast-triceratops-2.jpg;true;7843:sup-beast-2.jpg;true;8329:basic-dinosaur-3.jpg;true;9992,1637688112495,B,FALSE,label1,beast,NULL
1637688374,c0f4d1afd9d1cc00a8f683f2284eadc4,5,0,experiment,NULL,PennController,5,_Trial_,End,1637688147489,B,FALSE,label1,beast,NULL
1637688374,c0f4d1afd9d1cc00a8f683f2284eadc4,6,0,experiment,NULL,PennController,6,_Trial_,Start,1637688147490,B,TRUE,label2,electronics,NULL
1637688374,c0f4d1afd9d1cc00a8f683f2284eadc4,6,0,experiment,NULL,SelectionGrid,test-phase,Selections,sub-smart_phone-1.jpg|sub-smart_phone-1.jpg;true;5704,1637688147493,B,TRUE,label2,electronics,NULL
1637688374,c0f4d1afd9d1cc00a8f683f2284eadc4,6,0,experiment,NULL,PennController,6,_Trial_,End,1637688188569,B,TRUE,label2,electronics,NULL
1637688374,c0f4d1afd9d1cc00a8f683f2284eadc4,7,0,experiment,NULL,PennController,7,_Trial_,Start,1637688188571,B,FALSE,label1,Filler-Color-red,NULL
1637688374,c0f4d1afd9d1cc00a8f683f2284eadc4,7,0,experiment,NULL,SelectionGrid,test-phase,Selections,red-rect.jpg|red-rect.jpg;true;2120:red-rect.jpg;true;2474:red-rect.jpg;true;4083:red-rect.jpg;true;5236:red-rect.jpg;true;5737:red-rect.jpg;true;6010,1637688188574,B,FALSE,label1,Filler-Color-red,NULL
1637688374,c0f4d1afd9d1cc00a8f683f2284eadc4,7,0,experiment,NULL,PennController,7,_Trial_,End,1637688207232,B,FALSE,label1,Filler-Color-red,NULL
1637688374,c0f4d1afd9d1cc00a8f683f2284eadc4,8,0,experiment,NULL,PennController,8,_Trial_,Start,1637688207233,B,TRUE,label1,fruit,NULL
1637688374,c0f4d1afd9d1cc00a8f683f2284eadc4,8,0,experiment,NULL,SelectionGrid,test-phase,Selections,sup-fruit-2.jpg;contrast-green_apple-2.jpg;sup-fruit-3.jpg|sup-fruit-2.jpg;true;8357:contrast-green_apple-2.jpg;true;9374:sup-fruit-3.jpg;true;10616,1637688207236,B,TRUE,label1,fruit,NULL
1637688374,c0f4d1afd9d1cc00a8f683f2284eadc4,8,0,experiment,NULL,PennController,8,_Trial_,End,1637688240397,B,TRUE,label1,fruit,NULL
1637688374,c0f4d1afd9d1cc00a8f683f2284eadc4,9,0,experiment,NULL,PennController,9,_Trial_,Start,1637688240399,B,FALSE,label2,furniture,NULL
1637688374,c0f4d1afd9d1cc00a8f683f2284eadc4,9,0,experiment,NULL,SelectionGrid,test-phase,Selections,sub-wooden_chair-1.jpg;sub-wooden_chair-2.jpg|sub-wooden_chair-1.jpg;true;1566:sub-wooden_chair-2.jpg;true;4657,1637688240402,B,FALSE,label2,furniture,NULL
1637688374,c0f4d1afd9d1cc00a8f683f2284eadc4,9,0,experiment,NULL,PennController,9,_Trial_,End,1637688267029,B,FALSE,label2,furniture,NULL
1637688374,c0f4d1afd9d1cc00a8f683f2284eadc4,10,0,experiment,NULL,PennController,10,_Trial_,Start,1637688267030,B,FALSE,label1,light,NULL
1637688374,c0f4d1afd9d1cc00a8f683f2284eadc4,10,0,experiment,NULL,SelectionGrid,test-phase,Selections,sub-gooseneck_lamp-2.jpg;sub-gooseneck_lamp-1.jpg|sub-gooseneck_lamp-2.jpg;true;3191:sub-gooseneck_lamp-1.jpg;true;4009,1637688267033,B,FALSE,label1,light,NULL
1637688374,c0f4d1afd9d1cc00a8f683f2284eadc4,10,0,experiment,NULL,PennController,10,_Trial_,End,1637688292635,B,FALSE,label1,light,NULL
1637688374,c0f4d1afd9d1cc00a8f683f2284eadc4,11,0,experiment,NULL,PennController,11,_Trial_,Start,1637688292637,B,FALSE,label1,Filler-Shape-triangle,NULL
1637688374,c0f4d1afd9d1cc00a8f683f2284eadc4,11,0,experiment,NULL,SelectionGrid,test-phase,Selections,triangle-4.jpg;triangle-2.jpg;triangle-3.jpg;triangle-5.jpg;triangle-1.jpg|triangle-4.jpg;true;1614:triangle-2.jpg;true;2427:triangle-3.jpg;true;2674:triangle-5.jpg;true;2896:triangle-1.jpg;true;3421,1637688292640,B,FALSE,label1,Filler-Shape-triangle,NULL
1637688374,c0f4d1afd9d1cc00a8f683f2284eadc4,11,0,experiment,NULL,PennController,11,_Trial_,End,1637688308783,B,FALSE,label1,Filler-Shape-triangle,NULL
1637688374,c0f4d1afd9d1cc00a8f683f2284eadc4,12,0,experiment,NULL,PennController,12,_Trial_,Start,1637688308785,B,TRUE,label2,vegetable,NULL
1637688374,c0f4d1afd9d1cc00a8f683f2284eadc4,12,0,experiment,NULL,SelectionGrid,test-phase,Selections,sub-green_pepper-2.jpg;sub-green_pepper-1.jpg|sub-green_pepper-2.jpg;true;2619:sub-green_pepper-1.jpg;true;3226:basic-pepper-3.jpg;true;8753:basic-pepper-2.jpg;true;9125:basic-pepper-3.jpg;false;9882:basic-pepper-2.jpg;false;10191,1637688308788,B,TRUE,label2,vegetable,NULL
1637688374,c0f4d1afd9d1cc00a8f683f2284eadc4,12,0,experiment,NULL,PennController,12,_Trial_,End,1637688340248,B,TRUE,label2,vegetable,NULL
1637688374,c0f4d1afd9d1cc00a8f683f2284eadc4,13,0,experiment,NULL,PennController,13,_Trial_,Start,1637688340249,B,TRUE,label1,vehicle,NULL
1637688374,c0f4d1afd9d1cc00a8f683f2284eadc4,13,0,experiment,NULL,SelectionGrid,test-phase,Selections,contrast-van-1.jpg;contrast-van-2.jpg|contrast-van-1.jpg;true;9671:contrast-van-2.jpg;true;9968,1637688340252,B,TRUE,label1,vehicle,NULL
1637688374,c0f4d1afd9d1cc00a8f683f2284eadc4,13,0,experiment,NULL,PennController,13,_Trial_,End,1637688371950,B,TRUE,label1,vehicle,NULL
# 13. window_size.
# 14. Comments.
1637688374,c0f4d1afd9d1cc00a8f683f2284eadc4,14,0,end,NULL,PennController,2,_Trial_,Start,1637688371951,1920x979,NULL
1637688374,c0f4d1afd9d1cc00a8f683f2284eadc4,14,0,end,NULL,PennController,2,_Trial_,End,1637688374237,1920x979,NULL
#
# Results on Tue, 23 Nov 2021 17:27:33 GMT
# USER AGENT: Mozilla/5.0 (Windows NT 10.0; Win64; x64) AppleWebKit/537.36 (KHTML, like Gecko) Chrome/94.0.4606.71 Safari/537.36
# Design number was non-random = 6
#
# Columns below this comment are as follows:
# 1. Results reception time.
# 2. MD5 hash of participant's IP address.
# 3. Controller name.
# 4. Order number of item.
# 5. Inner element number.
# 6. Label.
# 7. Latin Square Group.
# 8. PennElementType.
# 9. PennElementName.
# 10. Parameter.
# 11. Value.
# 12. EventTime.
# 13. Comments.
1637688453,b423dc04379c46ece861d12beeb3b62e,2,0,intro,NULL,PennController,0,_Trial_,Start,1637688185467,NULL
1637688453,b423dc04379c46ece861d12beeb3b62e,2,0,intro,NULL,PennController,0,_Trial_,End,1637688190810,NULL
1637688453,b423dc04379c46ece861d12beeb3b62e,3,0,beginning,NULL,PennController,1,_Trial_,Start,1637688190843,NULL
1637688453,b423dc04379c46ece861d12beeb3b62e,3,0,beginning,NULL,PennController,1,_Trial_,End,1637688202718,NULL
# 13. group.
# 14. labelled.
# 15. target.
# 16. item.
# 17. Comments.
1637688453,b423dc04379c46ece861d12beeb3b62e,4,0,experiment,NULL,PennController,4,_Trial_,Start,1637688202723,C,TRUE,label1,animal,NULL
1637688453,b423dc04379c46ece861d12beeb3b62e,4,0,experiment,NULL,SelectionGrid,test-phase,Selections,sub-dalmatian-2.jpg;sub-dalmatian-1.jpg|sub-dalmatian-2.jpg;true;5249:sub-dalmatian-1.jpg;true;6098,1637688202730,C,TRUE,label1,animal,NULL
1637688453,b423dc04379c46ece861d12beeb3b62e,4,0,experiment,NULL,PennController,4,_Trial_,End,1637688230107,C,TRUE,label1,animal,NULL
1637688453,b423dc04379c46ece861d12beeb3b62e,5,0,experiment,NULL,PennController,5,_Trial_,Start,1637688230111,C,FALSE,label1,beast,NULL
1637688453,b423dc04379c46ece861d12beeb3b62e,5,0,experiment,NULL,SelectionGrid,test-phase,Selections,sub-trex-2.jpg;sub-trex-1.jpg|sub-trex-2.jpg;true;3611:sub-trex-1.jpg;true;5041,1637688230117,C,FALSE,label1,beast,NULL
1637688453,b423dc04379c46ece861d12beeb3b62e,5,0,experiment,NULL,PennController,5,_Trial_,End,1637688256945,C,FALSE,label1,beast,NULL
1637688453,b423dc04379c46ece861d12beeb3b62e,6,0,experiment,NULL,PennController,6,_Trial_,Start,1637688256949,C,TRUE,label2,electronics,NULL
1637688453,b423dc04379c46ece861d12beeb3b62e,6,0,experiment,NULL,SelectionGrid,test-phase,Selections,sub-smart_phone-1.jpg;sub-smart_phone-2.jpg|sub-smart_phone-1.jpg;true;2723:sub-smart_phone-2.jpg;true;3787,1637688256960,C,TRUE,label2,electronics,NULL
1637688453,b423dc04379c46ece861d12beeb3b62e,6,0,experiment,NULL,PennController,6,_Trial_,End,1637688284254,C,TRUE,label2,electronics,NULL
1637688453,b423dc04379c46ece861d12beeb3b62e,7,0,experiment,NULL,PennController,7,_Trial_,Start,1637688284260,C,FALSE,label1,Filler-Color-red,NULL
1637688453,b423dc04379c46ece861d12beeb3b62e,7,0,experiment,NULL,SelectionGrid,test-phase,Selections,red-rect.jpg|red-rect.jpg;true;2039:red-rect.jpg;true;2914:red-rect.jpg;true;3842:red-rect.jpg;true;4796:red-rect.jpg;true;5564:red-rect.jpg;true;6099,1637688284270,C,FALSE,label1,Filler-Color-red,NULL
1637688453,b423dc04379c46ece861d12beeb3b62e,7,0,experiment,NULL,PennController,7,_Trial_,End,1637688303711,C,FALSE,label1,Filler-Color-red,NULL
1637688453,b423dc04379c46ece861d12beeb3b62e,8,0,experiment,NULL,PennController,8,_Trial_,Start,1637688303714,C,FALSE,label2,fruit,NULL
1637688453,b423dc04379c46ece861d12beeb3b62e,8,0,experiment,NULL,SelectionGrid,test-phase,Selections,sub-red_apple-2.jpg;sub-red_apple-1.jpg|sub-red_apple-2.jpg;true;2125:sub-red_apple-1.jpg;true;3259,1637688303724,C,FALSE,label2,fruit,NULL
1637688453,b423dc04379c46ece861d12beeb3b62e,8,0,experiment,NULL,PennController,8,_Trial_,End,1637688328640,C,FALSE,label2,fruit,NULL
1637688453,b423dc04379c46ece861d12beeb3b62e,9,0,experiment,NULL,PennController,9,_Trial_,Start,1637688328645,C,TRUE,label1,furniture,NULL
1637688453,b423dc04379c46ece861d12beeb3b62e,9,0,experiment,NULL,SelectionGrid,test-phase,Selections,sub-wooden_chair-1.jpg;sub-wooden_chair-2.jpg|sub-wooden_chair-1.jpg;true;3235:sub-wooden_chair-2.jpg;true;3958,1637688328655,C,TRUE,label1,furniture,NULL
1637688453,b423dc04379c46ece861d12beeb3b62e,9,0,experiment,NULL,PennController,9,_Trial_,End,1637688353514,C,TRUE,label1,furniture,NULL
1637688453,b423dc04379c46ece861d12beeb3b62e,10,0,experiment,NULL,PennController,10,_Trial_,Start,1637688353519,C,FALSE,label1,light,NULL
1637688453,b423dc04379c46ece861d12beeb3b62e,10,0,experiment,NULL,SelectionGrid,test-phase,Selections,sub-gooseneck_lamp-2.jpg;sub-gooseneck_lamp-1.jpg|sub-gooseneck_lamp-2.jpg;true;1783:sub-gooseneck_lamp-1.jpg;true;3347,1637688353530,C,FALSE,label1,light,NULL
1637688453,b423dc04379c46ece861d12beeb3b62e,10,0,experiment,NULL,PennController,10,_Trial_,End,1637688377925,C,FALSE,label1,light,NULL
1637688453,b423dc04379c46ece861d12beeb3b62e,11,0,experiment,NULL,PennController,11,_Trial_,Start,1637688377928,C,FALSE,label1,Filler-Shape-triangle,NULL
1637688453,b423dc04379c46ece861d12beeb3b62e,11,0,experiment,NULL,SelectionGrid,test-phase,Selections,triangle-3.jpg;triangle-5.jpg;triangle-2.jpg;triangle-4.jpg;triangle-1.jpg|triangle-3.jpg;true;1663:triangle-5.jpg;true;2463:triangle-2.jpg;true;3254:triangle-4.jpg;true;4009:triangle-1.jpg;true;4775,1637688377940,C,FALSE,label1,Filler-Shape-triangle,NULL
1637688453,b423dc04379c46ece861d12beeb3b62e,11,0,experiment,NULL,PennController,11,_Trial_,End,1637688395754,C,FALSE,label1,Filler-Shape-triangle,NULL
1637688453,b423dc04379c46ece861d12beeb3b62e,12,0,experiment,NULL,PennController,12,_Trial_,Start,1637688395756,C,TRUE,label2,vegetable,NULL
1637688453,b423dc04379c46ece861d12beeb3b62e,12,0,experiment,NULL,SelectionGrid,test-phase,Selections,sub-green_pepper-1.jpg;sub-green_pepper-2.jpg|sub-green_pepper-1.jpg;true;2361:sub-green_pepper-2.jpg;true;5889,1637688395761,C,TRUE,label2,vegetable,NULL
1637688453,b423dc04379c46ece861d12beeb3b62e,12,0,experiment,NULL,PennController,12,_Trial_,End,1637688421983,C,TRUE,label2,vegetable,NULL
1637688453,b423dc04379c46ece861d12beeb3b62e,13,0,experiment,NULL,PennController,13,_Trial_,Start,1637688421988,C,FALSE,label2,vehicle,NULL
1637688453,b423dc04379c46ece861d12beeb3b62e,13,0,experiment,NULL,SelectionGrid,test-phase,Selections,sub-racecar-1.jpg;sub-racecar-2.jpg|sub-racecar-1.jpg;true;2432:sub-racecar-2.jpg;true;4329,1637688421996,C,FALSE,label2,vehicle,NULL
1637688453,b423dc04379c46ece861d12beeb3b62e,13,0,experiment,NULL,PennController,13,_Trial_,End,1637688446941,C,FALSE,label2,vehicle,NULL
# 13. window_size.
# 14. Comments.
1637688453,b423dc04379c46ece861d12beeb3b62e,14,0,end,NULL,PennController,2,_Trial_,Start,1637688446944,1366x625,NULL
1637688453,b423dc04379c46ece861d12beeb3b62e,14,0,end,NULL,PennController,2,_Trial_,End,1637688449655,1366x625,NULL
#
# Results on Tue, 23 Nov 2021 17:30:16 GMT
# USER AGENT: Mozilla/5.0 (Windows NT 10.0; Win64; x64) AppleWebKit/537.36 (KHTML, like Gecko) Chrome/95.0.4638.69 Safari/537.36
# Design number was non-random = 8
#
# Columns below this comment are as follows:
# 1. Results reception time.
# 2. MD5 hash of participant's IP address.
# 3. Controller name.
# 4. Order number of item.
# 5. Inner element number.
# 6. Label.
# 7. Latin Square Group.
# 8. PennElementType.
# 9. PennElementName.
# 10. Parameter.
# 11. Value.
# 12. EventTime.
# 13. Comments.
1637688616,04ac69ff925d3929ad20bb53cdb584d1,2,0,intro,NULL,PennController,0,_Trial_,Start,1637688335213,NULL
1637688616,04ac69ff925d3929ad20bb53cdb584d1,2,0,intro,NULL,PennController,0,_Trial_,End,1637688338740,NULL
1637688616,04ac69ff925d3929ad20bb53cdb584d1,3,0,beginning,NULL,PennController,1,_Trial_,Start,1637688338746,NULL
1637688616,04ac69ff925d3929ad20bb53cdb584d1,3,0,beginning,NULL,PennController,1,_Trial_,End,1637688344335,NULL
# 13. group.
# 14. labelled.
# 15. target.
# 16. item.
# 17. Comments.
1637688616,04ac69ff925d3929ad20bb53cdb584d1,4,0,experiment,NULL,PennController,4,_Trial_,Start,1637688344336,A,TRUE,label1,animal,NULL
1637688616,04ac69ff925d3929ad20bb53cdb584d1,4,0,experiment,NULL,SelectionGrid,test-phase,Selections,sub-dalmatian-1.jpg;sub-dalmatian-2.jpg|sub-dalmatian-1.jpg;true;4055:sub-dalmatian-2.jpg;true;5707,1637688344339,A,TRUE,label1,animal,NULL
1637688616,04ac69ff925d3929ad20bb53cdb584d1,4,0,experiment,NULL,PennController,4,_Trial_,End,1637688371669,A,TRUE,label1,animal,NULL
1637688616,04ac69ff925d3929ad20bb53cdb584d1,5,0,experiment,NULL,PennController,5,_Trial_,Start,1637688371671,A,TRUE,label2,beast,NULL
1637688616,04ac69ff925d3929ad20bb53cdb584d1,5,0,experiment,NULL,SelectionGrid,test-phase,Selections,sub-trex-2.jpg;sub-trex-1.jpg|sub-trex-2.jpg;true;3613:sub-trex-1.jpg;true;5586,1637688371676,A,TRUE,label2,beast,NULL
1637688616,04ac69ff925d3929ad20bb53cdb584d1,5,0,experiment,NULL,PennController,5,_Trial_,End,1637688401106,A,TRUE,label2,beast,NULL
1637688616,04ac69ff925d3929ad20bb53cdb584d1,6,0,experiment,NULL,PennController,6,_Trial_,Start,1637688401108,A,FALSE,label1,electronics,NULL
1637688616,04ac69ff925d3929ad20bb53cdb584d1,6,0,experiment,NULL,SelectionGrid,test-phase,Selections,contrast-flip_phone-1.jpg;contrast-flip_phone-2.jpg;basic-phone-2.jpg;basic-phone-3.jpg;sub-smart_phone-1.jpg;sub-smart_phone-2.jpg;basic-phone-1.jpg|contrast-flip_phone-1.jpg;true;3109:contrast-flip_phone-2.jpg;true;3880:basic-phone-2.jpg;true;7215:basic-phone-3.jpg;true;8066:sub-smart_phone-1.jpg;true;8736:sub-smart_phone-2.jpg;true;9544:basic-phone-1.jpg;true;11180,1637688401112,A,FALSE,label1,electronics,NULL
1637688616,04ac69ff925d3929ad20bb53cdb584d1,6,0,experiment,NULL,PennController,6,_Trial_,End,1637688433420,A,FALSE,label1,electronics,NULL
1637688616,04ac69ff925d3929ad20bb53cdb584d1,7,0,experiment,NULL,PennController,7,_Trial_,Start,1637688433421,A,FALSE,label1,Filler-Color-red,NULL
1637688616,04ac69ff925d3929ad20bb53cdb584d1,7,0,experiment,NULL,SelectionGrid,test-phase,Selections,red-rect.jpg|red-rect.jpg;true;1828:red-rect.jpg;true;3689:red-rect.jpg;true;4246:red-rect.jpg;true;4891:red-rect.jpg;true;6128:red-rect.jpg;true;6699,1637688433423,A,FALSE,label1,Filler-Color-red,NULL
1637688616,04ac69ff925d3929ad20bb53cdb584d1,7,0,experiment,NULL,PennController,7,_Trial_,End,1637688453564,A,FALSE,label1,Filler-Color-red,NULL
1637688616,04ac69ff925d3929ad20bb53cdb584d1,8,0,experiment,NULL,PennController,8,_Trial_,Start,1637688453567,A,FALSE,label2,fruit,NULL
1637688616,04ac69ff925d3929ad20bb53cdb584d1,8,0,experiment,NULL,SelectionGrid,test-phase,Selections,sub-red_apple-1.jpg;sub-red_apple-2.jpg|sub-red_apple-1.jpg;true;1916:sub-red_apple-2.jpg;true;2969,1637688453570,A,FALSE,label2,fruit,NULL
1637688616,04ac69ff925d3929ad20bb53cdb584d1,8,0,experiment,NULL,PennController,8,_Trial_,End,1637688484047,A,FALSE,label2,fruit,NULL
1637688616,04ac69ff925d3929ad20bb53cdb584d1,9,0,experiment,NULL,PennController,9,_Trial_,Start,1637688484049,A,TRUE,label1,furniture,NULL
1637688616,04ac69ff925d3929ad20bb53cdb584d1,9,0,experiment,NULL,SelectionGrid,test-phase,Selections,sub-wooden_chair-2.jpg;sub-wooden_chair-1.jpg|sub-wooden_chair-2.jpg;true;2265:sub-wooden_chair-1.jpg;true;5299,1637688484054,A,TRUE,label1,furniture,NULL
1637688616,04ac69ff925d3929ad20bb53cdb584d1,9,0,experiment,NULL,PennController,9,_Trial_,End,1637688513970,A,TRUE,label1,furniture,NULL
1637688616,04ac69ff925d3929ad20bb53cdb584d1,10,0,experiment,NULL,PennController,10,_Trial_,Start,1637688513972,A,TRUE,label2,light,NULL
1637688616,04ac69ff925d3929ad20bb53cdb584d1,10,0,experiment,NULL,SelectionGrid,test-phase,Selections,sub-gooseneck_lamp-1.jpg;sub-gooseneck_lamp-2.jpg|sub-gooseneck_lamp-1.jpg;true;2426:sub-gooseneck_lamp-2.jpg;true;3241,1637688513976,A,TRUE,label2,light,NULL
1637688616,04ac69ff925d3929ad20bb53cdb584d1,10,0,experiment,NULL,PennController,10,_Trial_,End,1637688540535,A,TRUE,label2,light,NULL
1637688616,04ac69ff925d3929ad20bb53cdb584d1,11,0,experiment,NULL,PennController,11,_Trial_,Start,1637688540537,A,FALSE,label1,Filler-Shape-triangle,NULL
1637688616,04ac69ff925d3929ad20bb53cdb584d1,11,0,experiment,NULL,SelectionGrid,test-phase,Selections,triangle-3.jpg;triangle-5.jpg;triangle-2.jpg;triangle-4.jpg;triangle-1.jpg|triangle-3.jpg;true;1679:triangle-5.jpg;true;2334:triangle-2.jpg;true;3063:triangle-4.jpg;true;3655:triangle-1.jpg;true;4310,1637688540540,A,FALSE,label1,Filler-Shape-triangle,NULL
1637688616,04ac69ff925d3929ad20bb53cdb584d1,11,0,experiment,NULL,PennController,11,_Trial_,End,1637688559517,A,FALSE,label1,Filler-Shape-triangle,NULL
1637688616,04ac69ff925d3929ad20bb53cdb584d1,12,0,experiment,NULL,PennController,12,_Trial_,Start,1637688559520,A,FALSE,label1,vegetable,NULL
1637688616,04ac69ff925d3929ad20bb53cdb584d1,12,0,experiment,NULL,SelectionGrid,test-phase,Selections,sub-green_pepper-1.jpg;sub-green_pepper-2.jpg|sub-green_pepper-1.jpg;true;2081:sub-green_pepper-2.jpg;true;3367,1637688559525,A,FALSE,label1,vegetable,NULL
1637688616,04ac69ff925d3929ad20bb53cdb584d1,12,0,experiment,NULL,PennController,12,_Trial_,End,1637688589829,A,FALSE,label1,vegetable,NULL
1637688616,04ac69ff925d3929ad20bb53cdb584d1,13,0,experiment,NULL,PennController,13,_Trial_,Start,1637688589831,A,FALSE,label2,vehicle,NULL
1637688616,04ac69ff925d3929ad20bb53cdb584d1,13,0,experiment,NULL,SelectionGrid,test-phase,Selections,sub-racecar-2.jpg;sub-racecar-1.jpg|sub-racecar-2.jpg;true;2744:sub-racecar-1.jpg;true;4108,1637688589835,A,FALSE,label2,vehicle,NULL
1637688616,04ac69ff925d3929ad20bb53cdb584d1,13,0,experiment,NULL,PennController,13,_Trial_,End,1637688615046,A,FALSE,label2,vehicle,NULL
# 13. window_size.
# 14. Comments.
1637688616,04ac69ff925d3929ad20bb53cdb584d1,14,0,end,NULL,PennController,2,_Trial_,Start,1637688615047,1280x577,NULL
1637688616,04ac69ff925d3929ad20bb53cdb584d1,14,0,end,NULL,PennController,2,_Trial_,End,1637688616843,1280x577,NULL
#
# Results on Tue, 23 Nov 2021 17:32:21 GMT
# USER AGENT: Mozilla/5.0 (Windows NT 10.0; Win64; x64) AppleWebKit/537.36 (KHTML, like Gecko) Chrome/96.0.4664.45 Safari/537.36 Edg/96.0.1054.29
# Design number was non-random = 9
#
# Columns below this comment are as follows:
# 1. Results reception time.
# 2. MD5 hash of participant's IP address.
# 3. Controller name.
# 4. Order number of item.
# 5. Inner element number.
# 6. Label.
# 7. Latin Square Group.
# 8. PennElementType.
# 9. PennElementName.
# 10. Parameter.
# 11. Value.
# 12. EventTime.
# 13. Comments.
1637688741,3945f62ca0da6d6a029f6c8869c2261e,2,0,intro,NULL,PennController,0,_Trial_,Start,1637688448532,NULL
1637688741,3945f62ca0da6d6a029f6c8869c2261e,2,0,intro,NULL,PennController,0,_Trial_,End,1637688460173,NULL
1637688741,3945f62ca0da6d6a029f6c8869c2261e,3,0,beginning,NULL,PennController,1,_Trial_,Start,1637688460179,NULL
1637688741,3945f62ca0da6d6a029f6c8869c2261e,3,0,beginning,NULL,PennController,1,_Trial_,End,1637688472475,NULL
# 13. group.
# 14. labelled.
# 15. target.
# 16. item.
# 17. Comments.
1637688741,3945f62ca0da6d6a029f6c8869c2261e,4,0,experiment,NULL,PennController,4,_Trial_,Start,1637688472476,B,FALSE,label2,animal,NULL
1637688741,3945f62ca0da6d6a029f6c8869c2261e,4,0,experiment,NULL,SelectionGrid,test-phase,Selections,basic-dog-3.jpg;contrast-corgi-1.jpg;contrast-corgi-2.jpg;sub-dalmatian-1.jpg;basic-dog-2.jpg;sub-dalmatian-2.jpg;basic-dog-1.jpg|basic-dog-3.jpg;true;4483:contrast-corgi-1.jpg;true;5066:contrast-corgi-2.jpg;true;5442:sub-dalmatian-1.jpg;true;6770:basic-dog-2.jpg;true;8491:sub-dalmatian-2.jpg;true;9266:basic-dog-1.jpg;true;10731,1637688472480,B,FALSE,label2,animal,NULL
1637688741,3945f62ca0da6d6a029f6c8869c2261e,4,0,experiment,NULL,PennController,4,_Trial_,End,1637688506556,B,FALSE,label2,animal,NULL
1637688741,3945f62ca0da6d6a029f6c8869c2261e,5,0,experiment,NULL,PennController,5,_Trial_,Start,1637688506557,B,FALSE,label1,beast,NULL
1637688741,3945f62ca0da6d6a029f6c8869c2261e,5,0,experiment,NULL,SelectionGrid,test-phase,Selections,contrast-triceratops-2.jpg;sub-trex-2.jpg;contrast-triceratops-1.jpg;basic-dinosaur-3.jpg;basic-dinosaur-1.jpg;basic-dinosaur-2.jpg;sub-trex-1.jpg|contrast-triceratops-2.jpg;true;2601:sub-trex-2.jpg;true;3705:contrast-triceratops-1.jpg;true;4561:basic-dinosaur-3.jpg;true;5089:basic-dinosaur-1.jpg;true;5633:basic-dinosaur-2.jpg;true;6929:sub-trex-1.jpg;true;7282:sup-beast-2.jpg;true;7633:sup-beast-2.jpg;false;8089,1637688506560,B,FALSE,label1,beast,NULL
1637688741,3945f62ca0da6d6a029f6c8869c2261e,5,0,experiment,NULL,PennController,5,_Trial_,End,1637688535018,B,FALSE,label1,beast,NULL
1637688741,3945f62ca0da6d6a029f6c8869c2261e,6,0,experiment,NULL,PennController,6,_Trial_,Start,1637688535020,B,TRUE,label2,electronics,NULL
1637688741,3945f62ca0da6d6a029f6c8869c2261e,6,0,experiment,NULL,SelectionGrid,test-phase,Selections,sub-smart_phone-2.jpg;sub-smart_phone-1.jpg|sub-smart_phone-2.jpg;true;5683:sub-smart_phone-1.jpg;true;8555,1637688535023,B,TRUE,label2,electronics,NULL
1637688741,3945f62ca0da6d6a029f6c8869c2261e,6,0,experiment,NULL,PennController,6,_Trial_,End,1637688565139,B,TRUE,label2,electronics,NULL
1637688741,3945f62ca0da6d6a029f6c8869c2261e,7,0,experiment,NULL,PennController,7,_Trial_,Start,1637688565140,B,FALSE,label1,Filler-Color-red,NULL
1637688741,3945f62ca0da6d6a029f6c8869c2261e,7,0,experiment,NULL,SelectionGrid,test-phase,Selections,red-rect.jpg|red-rect.jpg;true;2469:red-rect.jpg;true;2829:red-rect.jpg;true;3445:red-rect.jpg;true;4133:red-rect.jpg;true;4517:red-rect.jpg;true;5645:blue-rect.jpg;true;6429:blue-rect.jpg;true;6869:blue-rect.jpg;true;7741:green-rect.jpg;true;8213:green-rect.jpg;false;9501:blue-rect.jpg;false;9869:blue-rect.jpg;false;10557:blue-rect.jpg;false;10973,1637688565143,B,FALSE,label1,Filler-Color-red,NULL
1637688741,3945f62ca0da6d6a029f6c8869c2261e,7,0,experiment,NULL,PennController,7,_Trial_,End,1637688588995,B,FALSE,label1,Filler-Color-red,NULL
1637688741,3945f62ca0da6d6a029f6c8869c2261e,8,0,experiment,NULL,PennController,8,_Trial_,Start,1637688588996,B,TRUE,label1,fruit,NULL
1637688741,3945f62ca0da6d6a029f6c8869c2261e,8,0,experiment,NULL,SelectionGrid,test-phase,Selections,sub-red_apple-1.jpg;sub-red_apple-2.jpg;basic-apple-3.jpg|sub-red_apple-1.jpg;true;2937:sub-red_apple-2.jpg;true;4073:basic-apple-3.jpg;true;5545,1637688588998,B,TRUE,label1,fruit,NULL
1637688741,3945f62ca0da6d6a029f6c8869c2261e,8,0,experiment,NULL,PennController,8,_Trial_,End,1637688614898,B,TRUE,label1,fruit,NULL
1637688741,3945f62ca0da6d6a029f6c8869c2261e,9,0,experiment,NULL,PennController,9,_Trial_,Start,1637688614899,B,FALSE,label2,furniture,NULL
1637688741,3945f62ca0da6d6a029f6c8869c2261e,9,0,experiment,NULL,SelectionGrid,test-phase,Selections,sub-wooden_chair-2.jpg;sub-wooden_chair-1.jpg;contrast-office_chair-2.jpg;basic-chair-1.jpg;contrast-office_chair-1.jpg;basic-chair-2.jpg;basic-chair-3.jpg|sub-wooden_chair-2.jpg;true;2149:sub-wooden_chair-1.jpg;true;2861:contrast-office_chair-2.jpg;true;3509:basic-chair-1.jpg;true;4029:contrast-office_chair-1.jpg;true;4477:basic-chair-2.jpg;true;4853:basic-chair-3.jpg;true;5893,1637688614902,B,FALSE,label2,furniture,NULL
1637688741,3945f62ca0da6d6a029f6c8869c2261e,9,0,experiment,NULL,PennController,9,_Trial_,End,1637688641554,B,FALSE,label2,furniture,NULL
1637688741,3945f62ca0da6d6a029f6c8869c2261e,10,0,experiment,NULL,PennController,10,_Trial_,Start,1637688641555,B,FALSE,label1,light,NULL
1637688741,3945f62ca0da6d6a029f6c8869c2261e,10,0,experiment,NULL,SelectionGrid,test-phase,Selections,contrast-desk_lamp-1.jpg;sub-gooseneck_lamp-1.jpg;sub-gooseneck_lamp-2.jpg;contrast-desk_lamp-2.jpg|contrast-desk_lamp-1.jpg;true;2739:sub-gooseneck_lamp-1.jpg;true;3186:sub-gooseneck_lamp-2.jpg;true;3835:contrast-desk_lamp-2.jpg;true;4899,1637688641558,B,FALSE,label1,light,NULL
1637688741,3945f62ca0da6d6a029f6c8869c2261e,10,0,experiment,NULL,PennController,10,_Trial_,End,1637688667443,B,FALSE,label1,light,NULL
1637688741,3945f62ca0da6d6a029f6c8869c2261e,11,0,experiment,NULL,PennController,11,_Trial_,Start,1637688667443,B,FALSE,label1,Filler-Shape-triangle,NULL
1637688741,3945f62ca0da6d6a029f6c8869c2261e,11,0,experiment,NULL,SelectionGrid,test-phase,Selections,triangle-5.jpg;triangle-3.jpg;triangle-2.jpg;triangle-4.jpg;triangle-1.jpg|triangle-5.jpg;true;1305:triangle-3.jpg;true;1921:triangle-2.jpg;true;2240:triangle-4.jpg;true;2672:triangle-1.jpg;true;3625,1637688667447,B,FALSE,label1,Filler-Shape-triangle,NULL
1637688741,3945f62ca0da6d6a029f6c8869c2261e,11,0,experiment,NULL,PennController,11,_Trial_,End,1637688686563,B,FALSE,label1,Filler-Shape-triangle,NULL
1637688741,3945f62ca0da6d6a029f6c8869c2261e,12,0,experiment,NULL,PennController,12,_Trial_,Start,1637688686564,B,TRUE,label2,vegetable,NULL
1637688741,3945f62ca0da6d6a029f6c8869c2261e,12,0,experiment,NULL,SelectionGrid,test-phase,Selections,sub-green_pepper-2.jpg;sub-green_pepper-1.jpg|sub-green_pepper-2.jpg;true;1624:sub-green_pepper-1.jpg;true;2415,1637688686566,B,TRUE,label2,vegetable,NULL
1637688741,3945f62ca0da6d6a029f6c8869c2261e,12,0,experiment,NULL,PennController,12,_Trial_,End,1637688709514,B,TRUE,label2,vegetable,NULL
1637688741,3945f62ca0da6d6a029f6c8869c2261e,13,0,experiment,NULL,PennController,13,_Trial_,Start,1637688709515,B,TRUE,label1,vehicle,NULL
1637688741,3945f62ca0da6d6a029f6c8869c2261e,13,0,experiment,NULL,SelectionGrid,test-phase,Selections,basic-car-2.jpg;basic-car-1.jpg;sub-racecar-1.jpg;basic-car-3.jpg|basic-car-2.jpg;true;3201:basic-car-1.jpg;true;4217:sub-racecar-1.jpg;true;6001:basic-car-3.jpg;true;8001,1637688709518,B,TRUE,label1,vehicle,NULL
1637688741,3945f62ca0da6d6a029f6c8869c2261e,13,0,experiment,NULL,PennController,13,_Trial_,End,1637688738682,B,TRUE,label1,vehicle,NULL
# 13. window_size.
# 14. Comments.
1637688741,3945f62ca0da6d6a029f6c8869c2261e,14,0,end,NULL,PennController,2,_Trial_,Start,1637688738683,1920x969,NULL
1637688741,3945f62ca0da6d6a029f6c8869c2261e,14,0,end,NULL,PennController,2,_Trial_,End,1637688741514,1920x969,NULL
#
# Results on Tue, 23 Nov 2021 17:33:04 GMT
# USER AGENT: Mozilla/5.0 (Windows NT 10.0; Win64; x64) AppleWebKit/537.36 (KHTML, like Gecko) Chrome/92.0.4515.107 Safari/537.36
# Design number was non-random = 10
#
# Columns below this comment are as follows:
# 1. Results reception time.
# 2. MD5 hash of participant's IP address.
# 3. Controller name.
# 4. Order number of item.
# 5. Inner element number.
# 6. Label.
# 7. Latin Square Group.
# 8. PennElementType.
# 9. PennElementName.
# 10. Parameter.
# 11. Value.
# 12. EventTime.
# 13. Comments.
1637688784,20e969ca737e75c4c9c5be3ec87d8e24,2,0,intro,NULL,PennController,0,_Trial_,Start,1637688479027,NULL
1637688784,20e969ca737e75c4c9c5be3ec87d8e24,2,0,intro,NULL,PennController,0,_Trial_,End,1637688491512,NULL
1637688784,20e969ca737e75c4c9c5be3ec87d8e24,3,0,beginning,NULL,PennController,1,_Trial_,Start,1637688491522,NULL
1637688784,20e969ca737e75c4c9c5be3ec87d8e24,3,0,beginning,NULL,PennController,1,_Trial_,End,1637688502634,NULL
# 13. group.
# 14. labelled.
# 15. target.
# 16. item.
# 17. Comments.
1637688784,20e969ca737e75c4c9c5be3ec87d8e24,4,0,experiment,NULL,PennController,4,_Trial_,Start,1637688502639,C,TRUE,label1,animal,NULL
1637688784,20e969ca737e75c4c9c5be3ec87d8e24,4,0,experiment,NULL,SelectionGrid,test-phase,Selections,sub-dalmatian-1.jpg;sub-dalmatian-2.jpg|sub-dalmatian-1.jpg;true;3419:sub-dalmatian-2.jpg;true;4297,1637688502652,C,TRUE,label1,animal,NULL
1637688784,20e969ca737e75c4c9c5be3ec87d8e24,4,0,experiment,NULL,PennController,4,_Trial_,End,1637688529240,C,TRUE,label1,animal,NULL
1637688784,20e969ca737e75c4c9c5be3ec87d8e24,5,0,experiment,NULL,PennController,5,_Trial_,Start,1637688529242,C,FALSE,label1,beast,NULL
1637688784,20e969ca737e75c4c9c5be3ec87d8e24,5,0,experiment,NULL,SelectionGrid,test-phase,Selections,sub-trex-1.jpg;sub-trex-2.jpg|sub-trex-1.jpg;true;5103:sub-trex-2.jpg;true;5826,1637688529248,C,FALSE,label1,beast,NULL
1637688784,20e969ca737e75c4c9c5be3ec87d8e24,5,0,experiment,NULL,PennController,5,_Trial_,End,1637688557035,C,FALSE,label1,beast,NULL
1637688784,20e969ca737e75c4c9c5be3ec87d8e24,6,0,experiment,NULL,PennController,6,_Trial_,Start,1637688557037,C,TRUE,label2,electronics,NULL
1637688784,20e969ca737e75c4c9c5be3ec87d8e24,6,0,experiment,NULL,SelectionGrid,test-phase,Selections,sub-smart_phone-2.jpg;sub-smart_phone-1.jpg|sub-smart_phone-2.jpg;true;4134:sub-smart_phone-1.jpg;true;5307,1637688557042,C,TRUE,label2,electronics,NULL
1637688784,20e969ca737e75c4c9c5be3ec87d8e24,6,0,experiment,NULL,PennController,6,_Trial_,End,1637688584302,C,TRUE,label2,electronics,NULL
1637688784,20e969ca737e75c4c9c5be3ec87d8e24,7,0,experiment,NULL,PennController,7,_Trial_,Start,1637688584304,C,FALSE,label1,Filler-Color-red,NULL
1637688784,20e969ca737e75c4c9c5be3ec87d8e24,7,0,experiment,NULL,SelectionGrid,test-phase,Selections,red-rect.jpg|red-rect.jpg;true;2778:red-rect.jpg;true;3520:red-rect.jpg;true;4399:red-rect.jpg;true;6002:red-rect.jpg;true;6882:red-rect.jpg;true;7565,1637688584308,C,FALSE,label1,Filler-Color-red,NULL
1637688784,20e969ca737e75c4c9c5be3ec87d8e24,7,0,experiment,NULL,PennController,7,_Trial_,End,1637688605943,C,FALSE,label1,Filler-Color-red,NULL
1637688784,20e969ca737e75c4c9c5be3ec87d8e24,8,0,experiment,NULL,PennController,8,_Trial_,Start,1637688605945,C,FALSE,label2,fruit,NULL
1637688784,20e969ca737e75c4c9c5be3ec87d8e24,8,0,experiment,NULL,SelectionGrid,test-phase,Selections,sub-red_apple-2.jpg;sub-red_apple-1.jpg|sub-red_apple-2.jpg;true;5398:sub-red_apple-1.jpg;true;6395,1637688605951,C,FALSE,label2,fruit,NULL
1637688784,20e969ca737e75c4c9c5be3ec87d8e24,8,0,experiment,NULL,PennController,8,_Trial_,End,1637688632995,C,FALSE,label2,fruit,NULL
1637688784,20e969ca737e75c4c9c5be3ec87d8e24,9,0,experiment,NULL,PennController,9,_Trial_,Start,1637688632999,C,TRUE,label1,furniture,NULL
1637688784,20e969ca737e75c4c9c5be3ec87d8e24,9,0,experiment,NULL,SelectionGrid,test-phase,Selections,sub-wooden_chair-1.jpg;sub-wooden_chair-2.jpg|sub-wooden_chair-1.jpg;true;3557:sub-wooden_chair-2.jpg;true;4505,1637688633006,C,TRUE,label1,furniture,NULL
1637688784,20e969ca737e75c4c9c5be3ec87d8e24,9,0,experiment,NULL,PennController,9,_Trial_,End,1637688672548,C,TRUE,label1,furniture,NULL
1637688784,20e969ca737e75c4c9c5be3ec87d8e24,10,0,experiment,NULL,PennController,10,_Trial_,Start,1637688672552,C,FALSE,label1,light,NULL
1637688784,20e969ca737e75c4c9c5be3ec87d8e24,10,0,experiment,NULL,SelectionGrid,test-phase,Selections,sub-gooseneck_lamp-2.jpg;sub-gooseneck_lamp-1.jpg|sub-gooseneck_lamp-2.jpg;true;3657:sub-gooseneck_lamp-1.jpg;true;6479,1637688672560,C,FALSE,label1,light,NULL
1637688784,20e969ca737e75c4c9c5be3ec87d8e24,10,0,experiment,NULL,PennController,10,_Trial_,End,1637688701368,C,FALSE,label1,light,NULL
1637688784,20e969ca737e75c4c9c5be3ec87d8e24,11,0,experiment,NULL,PennController,11,_Trial_,Start,1637688701371,C,FALSE,label1,Filler-Shape-triangle,NULL
1637688784,20e969ca737e75c4c9c5be3ec87d8e24,11,0,experiment,NULL,SelectionGrid,test-phase,Selections,triangle-5.jpg;triangle-3.jpg;triangle-2.jpg;triangle-4.jpg;triangle-1.jpg|triangle-5.jpg;true;6237:triangle-3.jpg;true;7038:triangle-2.jpg;true;8054:triangle-4.jpg;true;8787:triangle-1.jpg;true;9509,1637688701379,C,FALSE,label1,Filler-Shape-triangle,NULL
1637688784,20e969ca737e75c4c9c5be3ec87d8e24,11,0,experiment,NULL,PennController,11,_Trial_,End,1637688724742,C,FALSE,label1,Filler-Shape-triangle,NULL
1637688784,20e969ca737e75c4c9c5be3ec87d8e24,12,0,experiment,NULL,PennController,12,_Trial_,Start,1637688724745,C,TRUE,label2,vegetable,NULL
1637688784,20e969ca737e75c4c9c5be3ec87d8e24,12,0,experiment,NULL,SelectionGrid,test-phase,Selections,sub-green_pepper-1.jpg;sub-green_pepper-2.jpg|contrast-red_pepper-2.jpg;true;1297:contrast-red_pepper-2.jpg;false;2879:sub-green_pepper-1.jpg;true;3699:sub-green_pepper-2.jpg;true;5388,1637688724764,C,TRUE,label2,vegetable,NULL
1637688784,20e969ca737e75c4c9c5be3ec87d8e24,12,0,experiment,NULL,PennController,12,_Trial_,End,1637688751428,C,TRUE,label2,vegetable,NULL
1637688784,20e969ca737e75c4c9c5be3ec87d8e24,13,0,experiment,NULL,PennController,13,_Trial_,Start,1637688751431,C,FALSE,label2,vehicle,NULL
1637688784,20e969ca737e75c4c9c5be3ec87d8e24,13,0,experiment,NULL,SelectionGrid,test-phase,Selections,sub-racecar-1.jpg;sub-racecar-2.jpg|sub-racecar-1.jpg;true;2851:sub-racecar-2.jpg;true;4715,1637688751453,C,FALSE,label2,vehicle,NULL
1637688784,20e969ca737e75c4c9c5be3ec87d8e24,13,0,experiment,NULL,PennController,13,_Trial_,End,1637688776772,C,FALSE,label2,vehicle,NULL
# 13. window_size.
# 14. Comments.
1637688784,20e969ca737e75c4c9c5be3ec87d8e24,14,0,end,NULL,PennController,2,_Trial_,Start,1637688776775,1366x625,NULL
1637688784,20e969ca737e75c4c9c5be3ec87d8e24,14,0,end,NULL,PennController,2,_Trial_,End,1637688779152,1366x625,NULL
#
# Results on Tue, 23 Nov 2021 17:34:12 GMT
# USER AGENT: Mozilla/5.0 (Macintosh; Intel Mac OS X 10_15_7) AppleWebKit/537.36 (KHTML, like Gecko) Chrome/95.0.4638.69 Safari/537.36
# Design number was non-random = 11
#
# Columns below this comment are as follows:
# 1. Results reception time.
# 2. MD5 hash of participant's IP address.
# 3. Controller name.
# 4. Order number of item.
# 5. Inner element number.
# 6. Label.
# 7. Latin Square Group.
# 8. PennElementType.
# 9. PennElementName.
# 10. Parameter.
# 11. Value.
# 12. EventTime.
# 13. Comments.
1637688852,f10dfcc620ad3ddbfc593483dd543594,2,0,intro,NULL,PennController,0,_Trial_,Start,1637688528557,NULL
1637688852,f10dfcc620ad3ddbfc593483dd543594,2,0,intro,NULL,PennController,0,_Trial_,End,1637688534080,NULL
1637688852,f10dfcc620ad3ddbfc593483dd543594,3,0,beginning,NULL,PennController,1,_Trial_,Start,1637688534085,NULL
1637688852,f10dfcc620ad3ddbfc593483dd543594,3,0,beginning,NULL,PennController,1,_Trial_,End,1637688541346,NULL
# 13. group.
# 14. labelled.
# 15. target.
# 16. item.
# 17. Comments.
1637688852,f10dfcc620ad3ddbfc593483dd543594,4,0,experiment,NULL,PennController,4,_Trial_,Start,1637688541347,D,FALSE,label2,animal,NULL
1637688852,f10dfcc620ad3ddbfc593483dd543594,4,0,experiment,NULL,SelectionGrid,test-phase,Selections,contrast-corgi-2.jpg;contrast-corgi-1.jpg;basic-dog-2.jpg;basic-dog-1.jpg;basic-dog-3.jpg;sub-dalmatian-1.jpg;sub-dalmatian-2.jpg|contrast-corgi-2.jpg;true;2302:contrast-corgi-1.jpg;true;3080:basic-dog-2.jpg;true;4099:basic-dog-1.jpg;true;5208:basic-dog-3.jpg;true;6172:sub-dalmatian-1.jpg;true;6769:sub-dalmatian-2.jpg;true;7590,1637688541354,D,FALSE,label2,animal,NULL
1637688852,f10dfcc620ad3ddbfc593483dd543594,4,0,experiment,NULL,PennController,4,_Trial_,End,1637688570856,D,FALSE,label2,animal,NULL
1637688852,f10dfcc620ad3ddbfc593483dd543594,5,0,experiment,NULL,PennController,5,_Trial_,Start,1637688570858,D,TRUE,label2,beast,NULL
1637688852,f10dfcc620ad3ddbfc593483dd543594,5,0,experiment,NULL,SelectionGrid,test-phase,Selections,sub-trex-2.jpg;sub-trex-1.jpg|sub-trex-2.jpg;true;6914:sub-trex-1.jpg;true;11954,1637688570866,D,TRUE,label2,beast,NULL
1637688852,f10dfcc620ad3ddbfc593483dd543594,5,0,experiment,NULL,PennController,5,_Trial_,End,1637688606810,D,TRUE,label2,beast,NULL
1637688852,f10dfcc620ad3ddbfc593483dd543594,6,0,experiment,NULL,PennController,6,_Trial_,Start,1637688606812,D,FALSE,label1,electronics,NULL
1637688852,f10dfcc620ad3ddbfc593483dd543594,6,0,experiment,NULL,SelectionGrid,test-phase,Selections,sub-smart_phone-2.jpg;contrast-flip_phone-1.jpg;contrast-flip_phone-2.jpg;sub-smart_phone-1.jpg|sub-smart_phone-2.jpg;true;1438:contrast-flip_phone-1.jpg;true;2143:contrast-flip_phone-2.jpg;true;2990:sub-smart_phone-1.jpg;true;5039,1637688606820,D,FALSE,label1,electronics,NULL
1637688852,f10dfcc620ad3ddbfc593483dd543594,6,0,experiment,NULL,PennController,6,_Trial_,End,1637688639599,D,FALSE,label1,electronics,NULL
1637688852,f10dfcc620ad3ddbfc593483dd543594,7,0,experiment,NULL,PennController,7,_Trial_,Start,1637688639600,D,FALSE,label1,Filler-Color-red,NULL
1637688852,f10dfcc620ad3ddbfc593483dd543594,7,0,experiment,NULL,SelectionGrid,test-phase,Selections,red-rect.jpg|red-rect.jpg;true;3179:red-rect.jpg;true;4758:red-rect.jpg;true;5577:red-rect.jpg;true;6395:red-rect.jpg;true;7319:red-rect.jpg;true;7913,1637688639609,D,FALSE,label1,Filler-Color-red,NULL
1637688852,f10dfcc620ad3ddbfc593483dd543594,7,0,experiment,NULL,PennController,7,_Trial_,End,1637688660819,D,FALSE,label1,Filler-Color-red,NULL
1637688852,f10dfcc620ad3ddbfc593483dd543594,8,0,experiment,NULL,PennController,8,_Trial_,Start,1637688660820,D,TRUE,label1,fruit,NULL
1637688852,f10dfcc620ad3ddbfc593483dd543594,8,0,experiment,NULL,SelectionGrid,test-phase,Selections,basic-apple-2.jpg;sub-red_apple-1.jpg;sub-red_apple-2.jpg;contrast-green_apple-1.jpg;basic-apple-3.jpg;contrast-green_apple-2.jpg;basic-apple-1.jpg|basic-apple-2.jpg;true;3415:sub-red_apple-1.jpg;true;4408:sub-red_apple-2.jpg;true;5055:contrast-green_apple-1.jpg;true;6699:basic-apple-3.jpg;true;7860:contrast-green_apple-2.jpg;true;8992:basic-apple-1.jpg;true;9858,1637688660829,D,TRUE,label1,fruit,NULL
1637688852,f10dfcc620ad3ddbfc593483dd543594,8,0,experiment,NULL,PennController,8,_Trial_,End,1637688690762,D,TRUE,label1,fruit,NULL
1637688852,f10dfcc620ad3ddbfc593483dd543594,9,0,experiment,NULL,PennController,9,_Trial_,Start,1637688690764,D,FALSE,label2,furniture,NULL
1637688852,f10dfcc620ad3ddbfc593483dd543594,9,0,experiment,NULL,SelectionGrid,test-phase,Selections,sub-wooden_chair-1.jpg;contrast-office_chair-2.jpg;contrast-office_chair-1.jpg;basic-chair-3.jpg;basic-chair-1.jpg;basic-chair-2.jpg;sub-wooden_chair-2.jpg|sub-wooden_chair-1.jpg;true;3607:contrast-office_chair-2.jpg;true;4280:contrast-office_chair-1.jpg;true;5429:basic-chair-3.jpg;true;5983:basic-chair-1.jpg;true;7276:basic-chair-2.jpg;true;8562:sub-wooden_chair-2.jpg;true;10054,1637688690772,D,FALSE,label2,furniture,NULL
1637688852,f10dfcc620ad3ddbfc593483dd543594,9,0,experiment,NULL,PennController,9,_Trial_,End,1637688727246,D,FALSE,label2,furniture,NULL
1637688852,f10dfcc620ad3ddbfc593483dd543594,10,0,experiment,NULL,PennController,10,_Trial_,Start,1637688727255,D,TRUE,label2,light,NULL
1637688852,f10dfcc620ad3ddbfc593483dd543594,10,0,experiment,NULL,SelectionGrid,test-phase,Selections,sub-gooseneck_lamp-2.jpg;sub-gooseneck_lamp-1.jpg|sub-gooseneck_lamp-2.jpg;true;2239:sub-gooseneck_lamp-1.jpg;true;5257,1637688727267,D,TRUE,label2,light,NULL
1637688852,f10dfcc620ad3ddbfc593483dd543594,10,0,experiment,NULL,PennController,10,_Trial_,End,1637688759636,D,TRUE,label2,light,NULL
1637688852,f10dfcc620ad3ddbfc593483dd543594,11,0,experiment,NULL,PennController,11,_Trial_,Start,1637688759638,D,FALSE,label1,Filler-Shape-triangle,NULL
1637688852,f10dfcc620ad3ddbfc593483dd543594,11,0,experiment,NULL,SelectionGrid,test-phase,Selections,triangle-5.jpg;triangle-3.jpg;triangle-2.jpg;triangle-4.jpg;triangle-1.jpg|triangle-5.jpg;true;1863:triangle-3.jpg;true;2368:triangle-2.jpg;true;2948:triangle-4.jpg;true;3524:triangle-1.jpg;true;4056,1637688759645,D,FALSE,label1,Filler-Shape-triangle,NULL
1637688852,f10dfcc620ad3ddbfc593483dd543594,11,0,experiment,NULL,PennController,11,_Trial_,End,1637688776788,D,FALSE,label1,Filler-Shape-triangle,NULL
1637688852,f10dfcc620ad3ddbfc593483dd543594,12,0,experiment,NULL,PennController,12,_Trial_,Start,1637688776790,D,FALSE,label1,vegetable,NULL
1637688852,f10dfcc620ad3ddbfc593483dd543594,12,0,experiment,NULL,SelectionGrid,test-phase,Selections,sub-green_pepper-1.jpg;basic-pepper-3.jpg;basic-pepper-2.jpg;contrast-red_pepper-1.jpg;sub-green_pepper-2.jpg;basic-pepper-1.jpg;contrast-red_pepper-2.jpg|sub-green_pepper-1.jpg;true;1696:basic-pepper-3.jpg;true;2541:basic-pepper-2.jpg;true;3414:contrast-red_pepper-1.jpg;true;4171:sub-green_pepper-2.jpg;true;4769:basic-pepper-1.jpg;true;5393:contrast-red_pepper-2.jpg;true;6014,1637688776798,D,FALSE,label1,vegetable,NULL
1637688852,f10dfcc620ad3ddbfc593483dd543594,12,0,experiment,NULL,PennController,12,_Trial_,End,1637688802868,D,FALSE,label1,vegetable,NULL
1637688852,f10dfcc620ad3ddbfc593483dd543594,13,0,experiment,NULL,PennController,13,_Trial_,Start,1637688802870,D,TRUE,label1,vehicle,NULL
1637688852,f10dfcc620ad3ddbfc593483dd543594,13,0,experiment,NULL,SelectionGrid,test-phase,Selections,sub-racecar-2.jpg;basic-car-3.jpg;sub-racecar-1.jpg;basic-car-1.jpg;basic-car-2.jpg|sub-racecar-2.jpg;true;2397:basic-car-3.jpg;true;2936:sub-racecar-1.jpg;true;3867:basic-car-1.jpg;true;4633:basic-car-2.jpg;true;7066,1637688802878,D,TRUE,label1,vehicle,NULL
1637688852,f10dfcc620ad3ddbfc593483dd543594,13,0,experiment,NULL,PennController,13,_Trial_,End,1637688831094,D,TRUE,label1,vehicle,NULL
# 13. window_size.
# 14. Comments.
1637688852,f10dfcc620ad3ddbfc593483dd543594,14,0,end,NULL,PennController,2,_Trial_,Start,1637688831096,1413x632,NULL
1637688852,f10dfcc620ad3ddbfc593483dd543594,14,0,end,NULL,PennController,2,_Trial_,End,1637688833267,1413x632,NULL
#
# Results on Tue, 23 Nov 2021 17:34:13 GMT
# USER AGENT: Mozilla/5.0 (Macintosh; Intel Mac OS X 10_15_5) AppleWebKit/537.36 (KHTML, like Gecko) Chrome/95.0.4638.54 Safari/537.36
# Design number was non-random = 16
#
# Columns below this comment are as follows:
# 1. Results reception time.
# 2. MD5 hash of participant's IP address.
# 3. Controller name.
# 4. Order number of item.
# 5. Inner element number.
# 6. Label.
# 7. Latin Square Group.
# 8. PennElementType.
# 9. PennElementName.
# 10. Parameter.
# 11. Value.
# 12. EventTime.
# 13. Comments.
1637688853,fd0ccb518d33cef385b803f334e11c0f,2,0,intro,NULL,PennController,0,_Trial_,Start,1637688586424,NULL
1637688853,fd0ccb518d33cef385b803f334e11c0f,2,0,intro,NULL,PennController,0,_Trial_,End,1637688588640,NULL
1637688853,fd0ccb518d33cef385b803f334e11c0f,3,0,beginning,NULL,PennController,1,_Trial_,Start,1637688588646,NULL
1637688853,fd0ccb518d33cef385b803f334e11c0f,3,0,beginning,NULL,PennController,1,_Trial_,End,1637688596655,NULL
# 13. group.
# 14. labelled.
# 15. target.
# 16. item.
# 17. Comments.
1637688853,fd0ccb518d33cef385b803f334e11c0f,4,0,experiment,NULL,PennController,4,_Trial_,Start,1637688596657,A,TRUE,label1,animal,NULL
1637688853,fd0ccb518d33cef385b803f334e11c0f,4,0,experiment,NULL,SelectionGrid,test-phase,Selections,sub-dalmatian-1.jpg;sub-dalmatian-2.jpg|sub-dalmatian-1.jpg;true;3010:sub-dalmatian-2.jpg;true;5124,1637688596664,A,TRUE,label1,animal,NULL
1637688853,fd0ccb518d33cef385b803f334e11c0f,4,0,experiment,NULL,PennController,4,_Trial_,End,1637688622858,A,TRUE,label1,animal,NULL
1637688853,fd0ccb518d33cef385b803f334e11c0f,5,0,experiment,NULL,PennController,5,_Trial_,Start,1637688622860,A,TRUE,label2,beast,NULL
1637688853,fd0ccb518d33cef385b803f334e11c0f,5,0,experiment,NULL,SelectionGrid,test-phase,Selections,sub-trex-2.jpg;sub-trex-1.jpg|sub-trex-2.jpg;true;2848:sub-trex-1.jpg;true;4798,1637688622866,A,TRUE,label2,beast,NULL
1637688853,fd0ccb518d33cef385b803f334e11c0f,5,0,experiment,NULL,PennController,5,_Trial_,End,1637688650107,A,TRUE,label2,beast,NULL
1637688853,fd0ccb518d33cef385b803f334e11c0f,6,0,experiment,NULL,PennController,6,_Trial_,Start,1637688650110,A,FALSE,label1,electronics,NULL
1637688853,fd0ccb518d33cef385b803f334e11c0f,6,0,experiment,NULL,SelectionGrid,test-phase,Selections,contrast-flip_phone-1.jpg;contrast-flip_phone-2.jpg;sub-smart_phone-2.jpg;sub-smart_phone-1.jpg;basic-phone-2.jpg;basic-phone-3.jpg|contrast-flip_phone-1.jpg;true;2136:contrast-flip_phone-2.jpg;true;2622:sub-smart_phone-2.jpg;true;3452:sub-smart_phone-1.jpg;true;4609:basic-phone-2.jpg;true;5284:basic-phone-3.jpg;true;6343,1637688650117,A,FALSE,label1,electronics,NULL
1637688853,fd0ccb518d33cef385b803f334e11c0f,6,0,experiment,NULL,PennController,6,_Trial_,End,1637688676414,A,FALSE,label1,electronics,NULL
1637688853,fd0ccb518d33cef385b803f334e11c0f,7,0,experiment,NULL,PennController,7,_Trial_,Start,1637688676418,A,FALSE,label1,Filler-Color-red,NULL
1637688853,fd0ccb518d33cef385b803f334e11c0f,7,0,experiment,NULL,SelectionGrid,test-phase,Selections,red-rect.jpg|red-rect.jpg;true;1630:red-rect.jpg;true;2491:red-rect.jpg;true;3046:red-rect.jpg;true;3863:red-rect.jpg;true;4592:red-rect.jpg;true;5099,1637688676422,A,FALSE,label1,Filler-Color-red,NULL
1637688853,fd0ccb518d33cef385b803f334e11c0f,7,0,experiment,NULL,PennController,7,_Trial_,End,1637688694586,A,FALSE,label1,Filler-Color-red,NULL
1637688853,fd0ccb518d33cef385b803f334e11c0f,8,0,experiment,NULL,PennController,8,_Trial_,Start,1637688694588,A,FALSE,label2,fruit,NULL
1637688853,fd0ccb518d33cef385b803f334e11c0f,8,0,experiment,NULL,SelectionGrid,test-phase,Selections,sub-red_apple-2.jpg;sub-red_apple-1.jpg|contrast-green_apple-2.jpg;true;1778:sub-red_apple-2.jpg;true;2308:contrast-green_apple-2.jpg;false;4662:sub-red_apple-2.jpg;false;5149:sub-red_apple-2.jpg;true;5603:sub-red_apple-1.jpg;true;6251,1637688694594,A,FALSE,label2,fruit,NULL
1637688853,fd0ccb518d33cef385b803f334e11c0f,8,0,experiment,NULL,PennController,8,_Trial_,End,1637688721022,A,FALSE,label2,fruit,NULL
1637688853,fd0ccb518d33cef385b803f334e11c0f,9,0,experiment,NULL,PennController,9,_Trial_,Start,1637688721024,A,TRUE,label1,furniture,NULL
1637688853,fd0ccb518d33cef385b803f334e11c0f,9,0,experiment,NULL,SelectionGrid,test-phase,Selections,sub-wooden_chair-2.jpg;sub-wooden_chair-1.jpg;basic-chair-3.jpg|sub-wooden_chair-2.jpg;true;1905:sub-wooden_chair-1.jpg;true;3521:basic-chair-3.jpg;true;5054,1637688721031,A,TRUE,label1,furniture,NULL
1637688853,fd0ccb518d33cef385b803f334e11c0f,9,0,experiment,NULL,PennController,9,_Trial_,End,1637688746338,A,TRUE,label1,furniture,NULL
1637688853,fd0ccb518d33cef385b803f334e11c0f,10,0,experiment,NULL,PennController,10,_Trial_,Start,1637688746341,A,TRUE,label2,light,NULL
1637688853,fd0ccb518d33cef385b803f334e11c0f,10,0,experiment,NULL,SelectionGrid,test-phase,Selections,sub-gooseneck_lamp-1.jpg;contrast-desk_lamp-1.jpg;sub-gooseneck_lamp-2.jpg|sub-gooseneck_lamp-1.jpg;true;2340:contrast-desk_lamp-1.jpg;true;3059:sub-gooseneck_lamp-2.jpg;true;3749,1637688746346,A,TRUE,label2,light,NULL
1637688853,fd0ccb518d33cef385b803f334e11c0f,10,0,experiment,NULL,PennController,10,_Trial_,End,1637688770461,A,TRUE,label2,light,NULL
1637688853,fd0ccb518d33cef385b803f334e11c0f,11,0,experiment,NULL,PennController,11,_Trial_,Start,1637688770464,A,FALSE,label1,Filler-Shape-triangle,NULL
1637688853,fd0ccb518d33cef385b803f334e11c0f,11,0,experiment,NULL,SelectionGrid,test-phase,Selections,triangle-5.jpg;triangle-3.jpg;triangle-2.jpg;triangle-4.jpg;triangle-1.jpg|triangle-5.jpg;true;1508:triangle-3.jpg;true;2013:triangle-2.jpg;true;2511:triangle-4.jpg;true;3007:triangle-1.jpg;true;3494,1637688770470,A,FALSE,label1,Filler-Shape-triangle,NULL
1637688853,fd0ccb518d33cef385b803f334e11c0f,11,0,experiment,NULL,PennController,11,_Trial_,End,1637688786935,A,FALSE,label1,Filler-Shape-triangle,NULL
1637688853,fd0ccb518d33cef385b803f334e11c0f,12,0,experiment,NULL,PennController,12,_Trial_,Start,1637688786936,A,FALSE,label1,vegetable,NULL
1637688853,fd0ccb518d33cef385b803f334e11c0f,12,0,experiment,NULL,SelectionGrid,test-phase,Selections,sub-green_pepper-1.jpg;sub-green_pepper-2.jpg|sub-green_pepper-1.jpg;true;1914:sub-green_pepper-2.jpg;true;2928,1637688786946,A,FALSE,label1,vegetable,NULL
1637688853,fd0ccb518d33cef385b803f334e11c0f,12,0,experiment,NULL,PennController,12,_Trial_,End,1637688810140,A,FALSE,label1,vegetable,NULL
1637688853,fd0ccb518d33cef385b803f334e11c0f,13,0,experiment,NULL,PennController,13,_Trial_,Start,1637688810144,A,FALSE,label2,vehicle,NULL
1637688853,fd0ccb518d33cef385b803f334e11c0f,13,0,experiment,NULL,SelectionGrid,test-phase,Selections,sub-racecar-2.jpg;sub-racecar-1.jpg|sub-racecar-2.jpg;true;2763:sub-racecar-1.jpg;true;3566,1637688810148,A,FALSE,label2,vehicle,NULL
1637688853,fd0ccb518d33cef385b803f334e11c0f,13,0,experiment,NULL,PennController,13,_Trial_,End,1637688833796,A,FALSE,label2,vehicle,NULL
# 13. window_size.
# 14. Comments.
1637688853,fd0ccb518d33cef385b803f334e11c0f,14,0,end,NULL,PennController,2,_Trial_,Start,1637688833799,1287x645,NULL
1637688853,fd0ccb518d33cef385b803f334e11c0f,14,0,end,NULL,PennController,2,_Trial_,End,1637688835656,1287x645,NULL
#
# Results on Tue, 23 Nov 2021 17:34:17 GMT
# USER AGENT: Mozilla/5.0 (Windows NT 10.0; Win64; x64) AppleWebKit/537.36 (KHTML, like Gecko) Chrome/96.0.4664.45 Safari/537.36
# Design number was non-random = 13
#
# Columns below this comment are as follows:
# 1. Results reception time.
# 2. MD5 hash of participant's IP address.
# 3. Controller name.
# 4. Order number of item.
# 5. Inner element number.
# 6. Label.
# 7. Latin Square Group.
# 8. PennElementType.
# 9. PennElementName.
# 10. Parameter.
# 11. Value.
# 12. EventTime.
# 13. Comments.
1637688857,6ba8f91e26b45879186a303b1524e8b3,2,0,intro,NULL,PennController,0,_Trial_,Start,1637688565432,NULL
1637688857,6ba8f91e26b45879186a303b1524e8b3,2,0,intro,NULL,PennController,0,_Trial_,End,1637688569543,NULL
1637688857,6ba8f91e26b45879186a303b1524e8b3,3,0,beginning,NULL,PennController,1,_Trial_,Start,1637688569552,NULL
1637688857,6ba8f91e26b45879186a303b1524e8b3,3,0,beginning,NULL,PennController,1,_Trial_,End,1637688578872,NULL
# 13. group.
# 14. labelled.
# 15. target.
# 16. item.
# 17. Comments.
1637688857,6ba8f91e26b45879186a303b1524e8b3,4,0,experiment,NULL,PennController,4,_Trial_,Start,1637688578874,B,FALSE,label2,animal,NULL
1637688857,6ba8f91e26b45879186a303b1524e8b3,4,0,experiment,NULL,SelectionGrid,test-phase,Selections,sub-dalmatian-1.jpg;sub-dalmatian-2.jpg|sub-dalmatian-1.jpg;true;5203:sub-dalmatian-2.jpg;true;5842,1637688578882,B,FALSE,label2,animal,NULL
1637688857,6ba8f91e26b45879186a303b1524e8b3,4,0,experiment,NULL,PennController,4,_Trial_,End,1637688609752,B,FALSE,label2,animal,NULL
1637688857,6ba8f91e26b45879186a303b1524e8b3,5,0,experiment,NULL,PennController,5,_Trial_,Start,1637688609754,B,FALSE,label1,beast,NULL
1637688857,6ba8f91e26b45879186a303b1524e8b3,5,0,experiment,NULL,SelectionGrid,test-phase,Selections,basic-dinosaur-3.jpg;basic-dinosaur-1.jpg;basic-dinosaur-2.jpg;sub-trex-1.jpg;sup-beast-2.jpg;sub-trex-2.jpg;sup-beast-3.jpg;contrast-triceratops-2.jpg;contrast-triceratops-1.jpg|basic-dinosaur-3.jpg;true;10796:basic-dinosaur-1.jpg;true;11246:basic-dinosaur-2.jpg;true;12181:sub-trex-1.jpg;true;12593:sup-beast-2.jpg;true;12927:sub-trex-2.jpg;true;13243:sup-beast-3.jpg;true;13530:contrast-triceratops-2.jpg;true;14198:contrast-triceratops-1.jpg;true;16429,1637688609757,B,FALSE,label1,beast,NULL
1637688857,6ba8f91e26b45879186a303b1524e8b3,5,0,experiment,NULL,PennController,5,_Trial_,End,1637688647413,B,FALSE,label1,beast,NULL
1637688857,6ba8f91e26b45879186a303b1524e8b3,6,0,experiment,NULL,PennController,6,_Trial_,Start,1637688647415,B,TRUE,label2,electronics,NULL
1637688857,6ba8f91e26b45879186a303b1524e8b3,6,0,experiment,NULL,SelectionGrid,test-phase,Selections,sub-smart_phone-1.jpg;sub-smart_phone-2.jpg|sub-smart_phone-1.jpg;true;4677:sub-smart_phone-2.jpg;true;6438,1637688647419,B,TRUE,label2,electronics,NULL
1637688857,6ba8f91e26b45879186a303b1524e8b3,6,0,experiment,NULL,PennController,6,_Trial_,End,1637688676945,B,TRUE,label2,electronics,NULL
1637688857,6ba8f91e26b45879186a303b1524e8b3,7,0,experiment,NULL,PennController,7,_Trial_,Start,1637688676947,B,FALSE,label1,Filler-Color-red,NULL
1637688857,6ba8f91e26b45879186a303b1524e8b3,7,0,experiment,NULL,SelectionGrid,test-phase,Selections,red-rect.jpg|red-rect.jpg;true;1451:red-rect.jpg;true;1938:red-rect.jpg;true;2473:red-rect.jpg;true;3037:red-rect.jpg;true;3342:red-rect.jpg;true;3677,1637688676951,B,FALSE,label1,Filler-Color-red,NULL
1637688857,6ba8f91e26b45879186a303b1524e8b3,7,0,experiment,NULL,PennController,7,_Trial_,End,1637688695350,B,FALSE,label1,Filler-Color-red,NULL
1637688857,6ba8f91e26b45879186a303b1524e8b3,8,0,experiment,NULL,PennController,8,_Trial_,Start,1637688695351,B,TRUE,label1,fruit,NULL
1637688857,6ba8f91e26b45879186a303b1524e8b3,8,0,experiment,NULL,SelectionGrid,test-phase,Selections,sub-red_apple-1.jpg;sub-red_apple-2.jpg|sub-red_apple-1.jpg;true;4062:sub-red_apple-2.jpg;true;5663,1637688695355,B,TRUE,label1,fruit,NULL
1637688857,6ba8f91e26b45879186a303b1524e8b3,8,0,experiment,NULL,PennController,8,_Trial_,End,1637688722567,B,TRUE,label1,fruit,NULL
1637688857,6ba8f91e26b45879186a303b1524e8b3,9,0,experiment,NULL,PennController,9,_Trial_,Start,1637688722569,B,FALSE,label2,furniture,NULL
1637688857,6ba8f91e26b45879186a303b1524e8b3,9,0,experiment,NULL,SelectionGrid,test-phase,Selections,sub-wooden_chair-2.jpg;sub-wooden_chair-1.jpg|sub-wooden_chair-2.jpg;true;1519:sub-wooden_chair-1.jpg;true;6281,1637688722573,B,FALSE,label2,furniture,NULL
1637688857,6ba8f91e26b45879186a303b1524e8b3,9,0,experiment,NULL,PennController,9,_Trial_,End,1637688752406,B,FALSE,label2,furniture,NULL
1637688857,6ba8f91e26b45879186a303b1524e8b3,10,0,experiment,NULL,PennController,10,_Trial_,Start,1637688752409,B,FALSE,label1,light,NULL
1637688857,6ba8f91e26b45879186a303b1524e8b3,10,0,experiment,NULL,SelectionGrid,test-phase,Selections,sub-gooseneck_lamp-1.jpg;sub-gooseneck_lamp-2.jpg|sub-gooseneck_lamp-1.jpg;true;5036:sub-gooseneck_lamp-2.jpg;true;5847,1637688752413,B,FALSE,label1,light,NULL
1637688857,6ba8f91e26b45879186a303b1524e8b3,10,0,experiment,NULL,PennController,10,_Trial_,End,1637688782664,B,FALSE,label1,light,NULL
1637688857,6ba8f91e26b45879186a303b1524e8b3,11,0,experiment,NULL,PennController,11,_Trial_,Start,1637688782666,B,FALSE,label1,Filler-Shape-triangle,NULL
1637688857,6ba8f91e26b45879186a303b1524e8b3,11,0,experiment,NULL,SelectionGrid,test-phase,Selections,triangle-5.jpg;triangle-3.jpg;triangle-2.jpg;triangle-4.jpg;triangle-1.jpg|triangle-5.jpg;true;2213:triangle-3.jpg;true;3129:triangle-2.jpg;true;3711:triangle-4.jpg;true;4102:triangle-1.jpg;true;4494,1637688782671,B,FALSE,label1,Filler-Shape-triangle,NULL
1637688857,6ba8f91e26b45879186a303b1524e8b3,11,0,experiment,NULL,PennController,11,_Trial_,End,1637688800227,B,FALSE,label1,Filler-Shape-triangle,NULL
1637688857,6ba8f91e26b45879186a303b1524e8b3,12,0,experiment,NULL,PennController,12,_Trial_,Start,1637688800230,B,TRUE,label2,vegetable,NULL
1637688857,6ba8f91e26b45879186a303b1524e8b3,12,0,experiment,NULL,SelectionGrid,test-phase,Selections,sub-green_pepper-2.jpg;sub-green_pepper-1.jpg|sub-green_pepper-2.jpg;true;2447:sub-green_pepper-1.jpg;true;4447,1637688800234,B,TRUE,label2,vegetable,NULL
1637688857,6ba8f91e26b45879186a303b1524e8b3,12,0,experiment,NULL,PennController,12,_Trial_,End,1637688826512,B,TRUE,label2,vegetable,NULL
1637688857,6ba8f91e26b45879186a303b1524e8b3,13,0,experiment,NULL,PennController,13,_Trial_,Start,1637688826514,B,TRUE,label1,vehicle,NULL
1637688857,6ba8f91e26b45879186a303b1524e8b3,13,0,experiment,NULL,SelectionGrid,test-phase,Selections,sub-racecar-2.jpg;sub-racecar-1.jpg|sub-racecar-2.jpg;true;2844:sub-racecar-1.jpg;true;5681,1637688826518,B,TRUE,label1,vehicle,NULL
1637688857,6ba8f91e26b45879186a303b1524e8b3,13,0,experiment,NULL,PennController,13,_Trial_,End,1637688853641,B,TRUE,label1,vehicle,NULL
# 13. window_size.
# 14. Comments.
1637688857,6ba8f91e26b45879186a303b1524e8b3,14,0,end,NULL,PennController,2,_Trial_,Start,1637688853642,1536x762,NULL
1637688857,6ba8f91e26b45879186a303b1524e8b3,14,0,end,NULL,PennController,2,_Trial_,End,1637688855964,1536x762,NULL
#
# Results on Tue, 23 Nov 2021 17:34:26 GMT
# USER AGENT: Mozilla/5.0 (X11; CrOS x86_64 14150.87.0) AppleWebKit/537.36 (KHTML, like Gecko) Chrome/94.0.4606.124 Safari/537.36
# Design number was non-random = 13
#
# Columns below this comment are as follows:
# 1. Results reception time.
# 2. MD5 hash of participant's IP address.
# 3. Controller name.
# 4. Order number of item.
# 5. Inner element number.
# 6. Label.
# 7. Latin Square Group.
# 8. PennElementType.
# 9. PennElementName.
# 10. Parameter.
# 11. Value.
# 12. EventTime.
# 13. Comments.
1637688866,f9ee20c03c38951c926cb11f6a35a1a4,2,0,intro,NULL,PennController,0,_Trial_,Start,1637688567322,NULL
1637688866,f9ee20c03c38951c926cb11f6a35a1a4,2,0,intro,NULL,PennController,0,_Trial_,End,1637688571046,NULL
1637688866,f9ee20c03c38951c926cb11f6a35a1a4,3,0,beginning,NULL,PennController,1,_Trial_,Start,1637688571067,NULL
1637688866,f9ee20c03c38951c926cb11f6a35a1a4,3,0,beginning,NULL,PennController,1,_Trial_,End,1637688580895,NULL
# 13. group.
# 14. labelled.
# 15. target.
# 16. item.
# 17. Comments.
1637688866,f9ee20c03c38951c926cb11f6a35a1a4,4,0,experiment,NULL,PennController,4,_Trial_,Start,1637688580900,B,FALSE,label2,animal,NULL
1637688866,f9ee20c03c38951c926cb11f6a35a1a4,4,0,experiment,NULL,SelectionGrid,test-phase,Selections,basic-dog-3.jpg;contrast-corgi-1.jpg;contrast-corgi-2.jpg;sub-dalmatian-1.jpg;basic-dog-2.jpg;basic-dog-1.jpg;sub-dalmatian-2.jpg|basic-dog-3.jpg;true;4044:contrast-corgi-1.jpg;true;4932:contrast-corgi-2.jpg;true;5750:sub-dalmatian-1.jpg;true;7170:basic-dog-2.jpg;true;8248:basic-dog-1.jpg;true;9660:sub-dalmatian-2.jpg;true;10604,1637688580915,B,FALSE,label2,animal,NULL
1637688866,f9ee20c03c38951c926cb11f6a35a1a4,4,0,experiment,NULL,PennController,4,_Trial_,End,1637688611883,B,FALSE,label2,animal,NULL
1637688866,f9ee20c03c38951c926cb11f6a35a1a4,5,0,experiment,NULL,PennController,5,_Trial_,Start,1637688611888,B,FALSE,label1,beast,NULL
1637688866,f9ee20c03c38951c926cb11f6a35a1a4,5,0,experiment,NULL,SelectionGrid,test-phase,Selections,contrast-triceratops-2.jpg;sub-trex-2.jpg;sub-trex-1.jpg;basic-dinosaur-2.jpg;basic-dinosaur-3.jpg;basic-dinosaur-1.jpg;contrast-triceratops-1.jpg|contrast-triceratops-2.jpg;true;3701:sub-trex-2.jpg;true;4780:sup-beast-2.jpg;true;5584:sup-beast-2.jpg;false;7090:sub-trex-1.jpg;true;8779:basic-dinosaur-2.jpg;true;9633:basic-dinosaur-3.jpg;true;11035:basic-dinosaur-1.jpg;true;11843:contrast-triceratops-1.jpg;true;12841,1637688611903,B,FALSE,label1,beast,NULL
1637688866,f9ee20c03c38951c926cb11f6a35a1a4,5,0,experiment,NULL,PennController,5,_Trial_,End,1637688646276,B,FALSE,label1,beast,NULL
1637688866,f9ee20c03c38951c926cb11f6a35a1a4,6,0,experiment,NULL,PennController,6,_Trial_,Start,1637688646281,B,TRUE,label2,electronics,NULL
1637688866,f9ee20c03c38951c926cb11f6a35a1a4,6,0,experiment,NULL,SelectionGrid,test-phase,Selections,sub-smart_phone-2.jpg|sub-smart_phone-2.jpg;true;3511:contrast-flip_phone-1.jpg;true;4283:sup-electronics-1.jpg;true;6547:sup-electronics-1.jpg;false;18578:contrast-flip_phone-1.jpg;false;20646,1637688646295,B,TRUE,label2,electronics,NULL
1637688866,f9ee20c03c38951c926cb11f6a35a1a4,6,0,experiment,NULL,PennController,6,_Trial_,End,1637688688514,B,TRUE,label2,electronics,NULL
1637688866,f9ee20c03c38951c926cb11f6a35a1a4,7,0,experiment,NULL,PennController,7,_Trial_,Start,1637688688519,B,FALSE,label1,Filler-Color-red,NULL
1637688866,f9ee20c03c38951c926cb11f6a35a1a4,7,0,experiment,NULL,SelectionGrid,test-phase,Selections,red-rect.jpg|red-rect.jpg;true;3042:red-rect.jpg;true;3644:red-rect.jpg;true;4498:red-rect.jpg;true;5478:red-rect.jpg;true;6322:red-rect.jpg;true;7419,1637688688532,B,FALSE,label1,Filler-Color-red,NULL
1637688866,f9ee20c03c38951c926cb11f6a35a1a4,7,0,experiment,NULL,PennController,7,_Trial_,End,1637688709675,B,FALSE,label1,Filler-Color-red,NULL
1637688866,f9ee20c03c38951c926cb11f6a35a1a4,8,0,experiment,NULL,PennController,8,_Trial_,Start,1637688709680,B,TRUE,label1,fruit,NULL
1637688866,f9ee20c03c38951c926cb11f6a35a1a4,8,0,experiment,NULL,SelectionGrid,test-phase,Selections,sub-red_apple-1.jpg;sub-red_apple-2.jpg|sub-red_apple-1.jpg;true;2474:sub-red_apple-2.jpg;true;3947,1637688709695,B,TRUE,label1,fruit,NULL
1637688866,f9ee20c03c38951c926cb11f6a35a1a4,8,0,experiment,NULL,PennController,8,_Trial_,End,1637688734276,B,TRUE,label1,fruit,NULL
1637688866,f9ee20c03c38951c926cb11f6a35a1a4,9,0,experiment,NULL,PennController,9,_Trial_,Start,1637688734280,B,FALSE,label2,furniture,NULL
1637688866,f9ee20c03c38951c926cb11f6a35a1a4,9,0,experiment,NULL,SelectionGrid,test-phase,Selections,sub-wooden_chair-1.jpg;sub-wooden_chair-2.jpg|sub-wooden_chair-1.jpg;true;1866:sub-wooden_chair-2.jpg;true;3889,1637688734296,B,FALSE,label2,furniture,NULL
1637688866,f9ee20c03c38951c926cb11f6a35a1a4,9,0,experiment,NULL,PennController,9,_Trial_,End,1637688759765,B,FALSE,label2,furniture,NULL
1637688866,f9ee20c03c38951c926cb11f6a35a1a4,10,0,experiment,NULL,PennController,10,_Trial_,Start,1637688759769,B,FALSE,label1,light,NULL
1637688866,f9ee20c03c38951c926cb11f6a35a1a4,10,0,experiment,NULL,SelectionGrid,test-phase,Selections,sub-gooseneck_lamp-1.jpg;sub-gooseneck_lamp-2.jpg|sub-gooseneck_lamp-1.jpg;true;8999:sub-gooseneck_lamp-2.jpg;true;10572,1637688759782,B,FALSE,label1,light,NULL
1637688866,f9ee20c03c38951c926cb11f6a35a1a4,10,0,experiment,NULL,PennController,10,_Trial_,End,1637688790799,B,FALSE,label1,light,NULL
1637688866,f9ee20c03c38951c926cb11f6a35a1a4,11,0,experiment,NULL,PennController,11,_Trial_,Start,1637688790804,B,FALSE,label1,Filler-Shape-triangle,NULL
1637688866,f9ee20c03c38951c926cb11f6a35a1a4,11,0,experiment,NULL,SelectionGrid,test-phase,Selections,triangle-5.jpg;triangle-3.jpg;triangle-2.jpg;triangle-4.jpg;triangle-1.jpg|triangle-5.jpg;true;2818:triangle-3.jpg;true;3743:triangle-2.jpg;true;4552:triangle-4.jpg;true;5307:triangle-1.jpg;true;6322,1637688790818,B,FALSE,label1,Filler-Shape-triangle,NULL
1637688866,f9ee20c03c38951c926cb11f6a35a1a4,11,0,experiment,NULL,PennController,11,_Trial_,End,1637688810289,B,FALSE,label1,Filler-Shape-triangle,NULL
1637688866,f9ee20c03c38951c926cb11f6a35a1a4,12,0,experiment,NULL,PennController,12,_Trial_,Start,1637688810294,B,TRUE,label2,vegetable,NULL
1637688866,f9ee20c03c38951c926cb11f6a35a1a4,12,0,experiment,NULL,SelectionGrid,test-phase,Selections,sub-green_pepper-1.jpg;sub-green_pepper-2.jpg|sub-green_pepper-1.jpg;true;2850:sub-green_pepper-2.jpg;true;4782,1637688810310,B,TRUE,label2,vegetable,NULL
1637688866,f9ee20c03c38951c926cb11f6a35a1a4,12,0,experiment,NULL,PennController,12,_Trial_,End,1637688836438,B,TRUE,label2,vegetable,NULL
1637688866,f9ee20c03c38951c926cb11f6a35a1a4,13,0,experiment,NULL,PennController,13,_Trial_,Start,1637688836442,B,TRUE,label1,vehicle,NULL
1637688866,f9ee20c03c38951c926cb11f6a35a1a4,13,0,experiment,NULL,SelectionGrid,test-phase,Selections,sub-racecar-2.jpg;basic-car-2.jpg;sub-racecar-1.jpg;basic-car-3.jpg|sub-racecar-2.jpg;true;2148:contrast-van-1.jpg;true;3064:contrast-van-1.jpg;false;3505:basic-car-2.jpg;true;4637:sub-racecar-1.jpg;true;5544:basic-car-3.jpg;true;6766,1637688836452,B,TRUE,label1,vehicle,NULL
1637688866,f9ee20c03c38951c926cb11f6a35a1a4,13,0,experiment,NULL,PennController,13,_Trial_,End,1637688863615,B,TRUE,label1,vehicle,NULL
# 13. window_size.
# 14. Comments.
1637688866,f9ee20c03c38951c926cb11f6a35a1a4,14,0,end,NULL,PennController,2,_Trial_,Start,1637688863619,1536x714,NULL
1637688866,f9ee20c03c38951c926cb11f6a35a1a4,14,0,end,NULL,PennController,2,_Trial_,End,1637688865239,1536x714,NULL
#
# Results on Tue, 23 Nov 2021 17:34:59 GMT
# USER AGENT: Mozilla/5.0 (Windows NT 10.0; Win64; x64) AppleWebKit/537.36 (KHTML, like Gecko) Chrome/96.0.4664.45 Safari/537.36 Edg/96.0.1054.29
# Design number was non-random = 11
#
# Columns below this comment are as follows:
# 1. Results reception time.
# 2. MD5 hash of participant's IP address.
# 3. Controller name.
# 4. Order number of item.
# 5. Inner element number.
# 6. Label.
# 7. Latin Square Group.
# 8. PennElementType.
# 9. PennElementName.
# 10. Parameter.
# 11. Value.
# 12. EventTime.
# 13. Comments.
1637688899,4e41c941665a26bbfafd42844d6493c7,2,0,intro,NULL,PennController,0,_Trial_,Start,1637688532134,NULL
1637688899,4e41c941665a26bbfafd42844d6493c7,2,0,intro,NULL,PennController,0,_Trial_,End,1637688540747,NULL
1637688899,4e41c941665a26bbfafd42844d6493c7,3,0,beginning,NULL,PennController,1,_Trial_,Start,1637688540754,NULL
1637688899,4e41c941665a26bbfafd42844d6493c7,3,0,beginning,NULL,PennController,1,_Trial_,End,1637688552802,NULL
# 13. group.
# 14. labelled.
# 15. target.
# 16. item.
# 17. Comments.
1637688899,4e41c941665a26bbfafd42844d6493c7,4,0,experiment,NULL,PennController,4,_Trial_,Start,1637688552803,D,FALSE,label2,animal,NULL
1637688899,4e41c941665a26bbfafd42844d6493c7,4,0,experiment,NULL,SelectionGrid,test-phase,Selections,sub-dalmatian-2.jpg;contrast-corgi-2.jpg;contrast-corgi-1.jpg;basic-dog-2.jpg;basic-dog-1.jpg;basic-dog-3.jpg;sub-dalmatian-1.jpg|sub-dalmatian-2.jpg;true;9550:contrast-corgi-2.jpg;true;10536:contrast-corgi-1.jpg;true;11096:basic-dog-2.jpg;true;11839:basic-dog-1.jpg;true;13718:basic-dog-3.jpg;true;14452:sub-dalmatian-1.jpg;true;15187,1637688552806,D,FALSE,label2,animal,NULL
1637688899,4e41c941665a26bbfafd42844d6493c7,4,0,experiment,NULL,PennController,4,_Trial_,End,1637688591254,D,FALSE,label2,animal,NULL
1637688899,4e41c941665a26bbfafd42844d6493c7,5,0,experiment,NULL,PennController,5,_Trial_,Start,1637688591256,D,TRUE,label2,beast,NULL
1637688899,4e41c941665a26bbfafd42844d6493c7,5,0,experiment,NULL,SelectionGrid,test-phase,Selections,sub-trex-1.jpg;sub-trex-2.jpg|sub-trex-1.jpg;true;13793:sub-trex-2.jpg;true;15356,1637688591262,D,TRUE,label2,beast,NULL
1637688899,4e41c941665a26bbfafd42844d6493c7,5,0,experiment,NULL,PennController,5,_Trial_,End,1637688630862,D,TRUE,label2,beast,NULL
1637688899,4e41c941665a26bbfafd42844d6493c7,6,0,experiment,NULL,PennController,6,_Trial_,Start,1637688630864,D,FALSE,label1,electronics,NULL
1637688899,4e41c941665a26bbfafd42844d6493c7,6,0,experiment,NULL,SelectionGrid,test-phase,Selections,contrast-flip_phone-2.jpg;contrast-flip_phone-1.jpg;sub-smart_phone-1.jpg;sub-smart_phone-2.jpg|contrast-flip_phone-2.jpg;true;4768:contrast-flip_phone-1.jpg;true;5297:basic-phone-2.jpg;true;6134:basic-phone-2.jpg;false;8062:sub-smart_phone-1.jpg;true;9387:sub-smart_phone-2.jpg;true;11425,1637688630867,D,FALSE,label1,electronics,NULL
1637688899,4e41c941665a26bbfafd42844d6493c7,6,0,experiment,NULL,PennController,6,_Trial_,End,1637688675867,D,FALSE,label1,electronics,NULL
1637688899,4e41c941665a26bbfafd42844d6493c7,7,0,experiment,NULL,PennController,7,_Trial_,Start,1637688675869,D,FALSE,label1,Filler-Color-red,NULL
1637688899,4e41c941665a26bbfafd42844d6493c7,7,0,experiment,NULL,SelectionGrid,test-phase,Selections,red-rect.jpg|red-rect.jpg;true;5031:red-rect.jpg;true;6003:red-rect.jpg;true;6840:red-rect.jpg;true;7417:red-rect.jpg;true;8411:red-rect.jpg;true;9265,1637688675871,D,FALSE,label1,Filler-Color-red,NULL
1637688899,4e41c941665a26bbfafd42844d6493c7,7,0,experiment,NULL,PennController,7,_Trial_,End,1637688698936,D,FALSE,label1,Filler-Color-red,NULL
1637688899,4e41c941665a26bbfafd42844d6493c7,8,0,experiment,NULL,PennController,8,_Trial_,Start,1637688698938,D,TRUE,label1,fruit,NULL
1637688899,4e41c941665a26bbfafd42844d6493c7,8,0,experiment,NULL,SelectionGrid,test-phase,Selections,sub-red_apple-1.jpg;sub-red_apple-2.jpg|sub-red_apple-1.jpg;true;7084:sub-red_apple-2.jpg;true;8134,1637688698943,D,TRUE,label1,fruit,NULL
1637688899,4e41c941665a26bbfafd42844d6493c7,8,0,experiment,NULL,PennController,8,_Trial_,End,1637688729966,D,TRUE,label1,fruit,NULL
1637688899,4e41c941665a26bbfafd42844d6493c7,9,0,experiment,NULL,PennController,9,_Trial_,Start,1637688729967,D,FALSE,label2,furniture,NULL
1637688899,4e41c941665a26bbfafd42844d6493c7,9,0,experiment,NULL,SelectionGrid,test-phase,Selections,contrast-office_chair-1.jpg;contrast-office_chair-2.jpg;sub-wooden_chair-1.jpg;basic-chair-3.jpg;basic-chair-1.jpg;basic-chair-2.jpg;sub-wooden_chair-2.jpg|contrast-office_chair-1.jpg;true;5998:contrast-office_chair-2.jpg;true;7926:sub-wooden_chair-1.jpg;true;10545:basic-chair-3.jpg;true;11392:basic-chair-1.jpg;true;12030:basic-chair-2.jpg;true;13056:sub-wooden_chair-2.jpg;true;14067,1637688729970,D,FALSE,label2,furniture,NULL
1637688899,4e41c941665a26bbfafd42844d6493c7,9,0,experiment,NULL,PennController,9,_Trial_,End,1637688766925,D,FALSE,label2,furniture,NULL
1637688899,4e41c941665a26bbfafd42844d6493c7,10,0,experiment,NULL,PennController,10,_Trial_,Start,1637688766927,D,TRUE,label2,light,NULL
1637688899,4e41c941665a26bbfafd42844d6493c7,10,0,experiment,NULL,SelectionGrid,test-phase,Selections,sub-gooseneck_lamp-2.jpg;sub-gooseneck_lamp-1.jpg;contrast-desk_lamp-2.jpg;contrast-desk_lamp-1.jpg|sub-gooseneck_lamp-2.jpg;true;4096:sub-gooseneck_lamp-1.jpg;true;4926:contrast-desk_lamp-2.jpg;true;6513:contrast-desk_lamp-1.jpg;true;7564,1637688766933,D,TRUE,label2,light,NULL
1637688899,4e41c941665a26bbfafd42844d6493c7,10,0,experiment,NULL,PennController,10,_Trial_,End,1637688800706,D,TRUE,label2,light,NULL
1637688899,4e41c941665a26bbfafd42844d6493c7,11,0,experiment,NULL,PennController,11,_Trial_,Start,1637688800708,D,FALSE,label1,Filler-Shape-triangle,NULL
1637688899,4e41c941665a26bbfafd42844d6493c7,11,0,experiment,NULL,SelectionGrid,test-phase,Selections,triangle-5.jpg;triangle-3.jpg;triangle-2.jpg;triangle-4.jpg;triangle-1.jpg|triangle-5.jpg;true;3738:triangle-3.jpg;true;4220:triangle-2.jpg;true;4623:triangle-4.jpg;true;6171:triangle-1.jpg;true;6753,1637688800714,D,FALSE,label1,Filler-Shape-triangle,NULL
1637688899,4e41c941665a26bbfafd42844d6493c7,11,0,experiment,NULL,PennController,11,_Trial_,End,1637688820386,D,FALSE,label1,Filler-Shape-triangle,NULL
1637688899,4e41c941665a26bbfafd42844d6493c7,12,0,experiment,NULL,PennController,12,_Trial_,Start,1637688820388,D,FALSE,label1,vegetable,NULL
1637688899,4e41c941665a26bbfafd42844d6493c7,12,0,experiment,NULL,SelectionGrid,test-phase,Selections,sub-green_pepper-1.jpg;sub-green_pepper-2.jpg|sub-green_pepper-1.jpg;true;22372:sub-green_pepper-2.jpg;true;24567,1637688820391,D,FALSE,label1,vegetable,NULL
1637688899,4e41c941665a26bbfafd42844d6493c7,12,0,experiment,NULL,PennController,12,_Trial_,End,1637688865106,D,FALSE,label1,vegetable,NULL
1637688899,4e41c941665a26bbfafd42844d6493c7,13,0,experiment,NULL,PennController,13,_Trial_,Start,1637688865107,D,TRUE,label1,vehicle,NULL
1637688899,4e41c941665a26bbfafd42844d6493c7,13,0,experiment,NULL,SelectionGrid,test-phase,Selections,sub-racecar-2.jpg;basic-car-3.jpg;basic-car-1.jpg;basic-car-2.jpg;sub-racecar-1.jpg|sub-racecar-2.jpg;true;3783:basic-car-3.jpg;true;4454:basic-car-1.jpg;true;4992:basic-car-2.jpg;true;6901:sub-racecar-1.jpg;true;7643,1637688865114,D,TRUE,label1,vehicle,NULL
1637688899,4e41c941665a26bbfafd42844d6493c7,13,0,experiment,NULL,PennController,13,_Trial_,End,1637688894577,D,TRUE,label1,vehicle,NULL
# 13. window_size.
# 14. Comments.
1637688899,4e41c941665a26bbfafd42844d6493c7,14,0,end,NULL,PennController,2,_Trial_,Start,1637688894579,1920x969,NULL
1637688899,4e41c941665a26bbfafd42844d6493c7,14,0,end,NULL,PennController,2,_Trial_,End,1637688898437,1920x969,NULL
#
# Results on Tue, 23 Nov 2021 17:35:01 GMT
# USER AGENT: Mozilla/5.0 (Macintosh; Intel Mac OS X 10_15_7) AppleWebKit/537.36 (KHTML, like Gecko) Chrome/96.0.4664.55 Safari/537.36
# Design number was non-random = 17
#
# Columns below this comment are as follows:
# 1. Results reception time.
# 2. MD5 hash of participant's IP address.
# 3. Controller name.
# 4. Order number of item.
# 5. Inner element number.
# 6. Label.
# 7. Latin Square Group.
# 8. PennElementType.
# 9. PennElementName.
# 10. Parameter.
# 11. Value.
# 12. EventTime.
# 13. Comments.
1637688901,013d9f26300538304abd1f8d4a059967,2,0,intro,NULL,PennController,0,_Trial_,Start,1637688597846,NULL
1637688901,013d9f26300538304abd1f8d4a059967,2,0,intro,NULL,PennController,0,_Trial_,End,1637688609020,NULL
1637688901,013d9f26300538304abd1f8d4a059967,3,0,beginning,NULL,PennController,1,_Trial_,Start,1637688609024,NULL
1637688901,013d9f26300538304abd1f8d4a059967,3,0,beginning,NULL,PennController,1,_Trial_,End,1637688619439,NULL
# 13. group.
# 14. labelled.
# 15. target.
# 16. item.
# 17. Comments.
1637688901,013d9f26300538304abd1f8d4a059967,4,0,experiment,NULL,PennController,4,_Trial_,Start,1637688619440,B,FALSE,label2,animal,NULL
1637688901,013d9f26300538304abd1f8d4a059967,4,0,experiment,NULL,SelectionGrid,test-phase,Selections,sub-dalmatian-2.jpg;sub-dalmatian-1.jpg|sub-dalmatian-2.jpg;true;7380:sub-dalmatian-1.jpg;true;8116,1637688619443,B,FALSE,label2,animal,NULL
1637688901,013d9f26300538304abd1f8d4a059967,4,0,experiment,NULL,PennController,4,_Trial_,End,1637688655896,B,FALSE,label2,animal,NULL
1637688901,013d9f26300538304abd1f8d4a059967,5,0,experiment,NULL,PennController,5,_Trial_,Start,1637688655897,B,FALSE,label1,beast,NULL
1637688901,013d9f26300538304abd1f8d4a059967,5,0,experiment,NULL,SelectionGrid,test-phase,Selections,sub-trex-2.jpg;sub-trex-1.jpg|sub-trex-2.jpg;true;3889:sub-trex-1.jpg;true;4417,1637688655900,B,FALSE,label1,beast,NULL
1637688901,013d9f26300538304abd1f8d4a059967,5,0,experiment,NULL,PennController,5,_Trial_,End,1637688696703,B,FALSE,label1,beast,NULL
1637688901,013d9f26300538304abd1f8d4a059967,6,0,experiment,NULL,PennController,6,_Trial_,Start,1637688696704,B,TRUE,label2,electronics,NULL
1637688901,013d9f26300538304abd1f8d4a059967,6,0,experiment,NULL,SelectionGrid,test-phase,Selections,sub-smart_phone-2.jpg;sub-smart_phone-1.jpg|sub-smart_phone-2.jpg;true;3030:sub-smart_phone-1.jpg;true;7070,1637688696707,B,TRUE,label2,electronics,NULL
1637688901,013d9f26300538304abd1f8d4a059967,6,0,experiment,NULL,PennController,6,_Trial_,End,1637688724302,B,TRUE,label2,electronics,NULL
1637688901,013d9f26300538304abd1f8d4a059967,7,0,experiment,NULL,PennController,7,_Trial_,Start,1637688724303,B,FALSE,label1,Filler-Color-red,NULL
1637688901,013d9f26300538304abd1f8d4a059967,7,0,experiment,NULL,SelectionGrid,test-phase,Selections,red-rect.jpg|red-rect.jpg;true;2818:red-rect.jpg;true;3209:red-rect.jpg;true;3673:red-rect.jpg;true;4322:red-rect.jpg;true;4753:red-rect.jpg;true;5225,1637688724306,B,FALSE,label1,Filler-Color-red,NULL
1637688901,013d9f26300538304abd1f8d4a059967,7,0,experiment,NULL,PennController,7,_Trial_,End,1637688743638,B,FALSE,label1,Filler-Color-red,NULL
1637688901,013d9f26300538304abd1f8d4a059967,8,0,experiment,NULL,PennController,8,_Trial_,Start,1637688743639,B,TRUE,label1,fruit,NULL
1637688901,013d9f26300538304abd1f8d4a059967,8,0,experiment,NULL,SelectionGrid,test-phase,Selections,sub-red_apple-1.jpg;sub-red_apple-2.jpg|sub-red_apple-1.jpg;true;2384:sub-red_apple-2.jpg;true;3840,1637688743642,B,TRUE,label1,fruit,NULL
1637688901,013d9f26300538304abd1f8d4a059967,8,0,experiment,NULL,PennController,8,_Trial_,End,1637688769711,B,TRUE,label1,fruit,NULL
1637688901,013d9f26300538304abd1f8d4a059967,9,0,experiment,NULL,PennController,9,_Trial_,Start,1637688769712,B,FALSE,label2,furniture,NULL
1637688901,013d9f26300538304abd1f8d4a059967,9,0,experiment,NULL,SelectionGrid,test-phase,Selections,sub-wooden_chair-2.jpg;sub-wooden_chair-1.jpg|sub-wooden_chair-2.jpg;true;1824:sub-wooden_chair-1.jpg;true;6520,1637688769715,B,FALSE,label2,furniture,NULL
1637688901,013d9f26300538304abd1f8d4a059967,9,0,experiment,NULL,PennController,9,_Trial_,End,1637688797614,B,FALSE,label2,furniture,NULL
1637688901,013d9f26300538304abd1f8d4a059967,10,0,experiment,NULL,PennController,10,_Trial_,Start,1637688797615,B,FALSE,label1,light,NULL
1637688901,013d9f26300538304abd1f8d4a059967,10,0,experiment,NULL,SelectionGrid,test-phase,Selections,sub-gooseneck_lamp-1.jpg;sub-gooseneck_lamp-2.jpg|sub-gooseneck_lamp-1.jpg;true;1815:sub-gooseneck_lamp-2.jpg;true;2727,1637688797618,B,FALSE,label1,light,NULL
1637688901,013d9f26300538304abd1f8d4a059967,10,0,experiment,NULL,PennController,10,_Trial_,End,1637688825598,B,FALSE,label1,light,NULL
1637688901,013d9f26300538304abd1f8d4a059967,11,0,experiment,NULL,PennController,11,_Trial_,Start,1637688825599,B,FALSE,label1,Filler-Shape-triangle,NULL
1637688901,013d9f26300538304abd1f8d4a059967,11,0,experiment,NULL,SelectionGrid,test-phase,Selections,triangle-3.jpg;triangle-4.jpg;triangle-1.jpg;triangle-5.jpg;triangle-2.jpg|triangle-3.jpg;true;3762:triangle-4.jpg;true;4750:triangle-1.jpg;true;4825:triangle-5.jpg;true;5537:triangle-2.jpg;true;6026,1637688825602,B,FALSE,label1,Filler-Shape-triangle,NULL
1637688901,013d9f26300538304abd1f8d4a059967,11,0,experiment,NULL,PennController,11,_Trial_,End,1637688844871,B,FALSE,label1,Filler-Shape-triangle,NULL
1637688901,013d9f26300538304abd1f8d4a059967,12,0,experiment,NULL,PennController,12,_Trial_,Start,1637688844872,B,TRUE,label2,vegetable,NULL
1637688901,013d9f26300538304abd1f8d4a059967,12,0,experiment,NULL,SelectionGrid,test-phase,Selections,sub-green_pepper-1.jpg|sub-green_pepper-1.jpg;true;3687,1637688844874,B,TRUE,label2,vegetable,NULL
1637688901,013d9f26300538304abd1f8d4a059967,12,0,experiment,NULL,PennController,12,_Trial_,End,1637688870054,B,TRUE,label2,vegetable,NULL
1637688901,013d9f26300538304abd1f8d4a059967,13,0,experiment,NULL,PennController,13,_Trial_,Start,1637688870055,B,TRUE,label1,vehicle,NULL
1637688901,013d9f26300538304abd1f8d4a059967,13,0,experiment,NULL,SelectionGrid,test-phase,Selections,sub-racecar-1.jpg;sub-racecar-2.jpg|sub-racecar-1.jpg;true;2916:sub-racecar-2.jpg;true;5884,1637688870057,B,TRUE,label1,vehicle,NULL
1637688901,013d9f26300538304abd1f8d4a059967,13,0,experiment,NULL,PennController,13,_Trial_,End,1637688897607,B,TRUE,label1,vehicle,NULL
# 13. window_size.
# 14. Comments.
1637688901,013d9f26300538304abd1f8d4a059967,14,0,end,NULL,PennController,2,_Trial_,Start,1637688897608,1030x585,NULL
1637688901,013d9f26300538304abd1f8d4a059967,14,0,end,NULL,PennController,2,_Trial_,End,1637688900470,1030x585,NULL
#
# Results on Tue, 23 Nov 2021 17:35:13 GMT
# USER AGENT: Mozilla/5.0 (Windows NT 10.0; Win64; x64) AppleWebKit/537.36 (KHTML, like Gecko) Chrome/95.0.4638.69 Safari/537.36
# Design number was non-random = 9
#
# Columns below this comment are as follows:
# 1. Results reception time.
# 2. MD5 hash of participant's IP address.
# 3. Controller name.
# 4. Order number of item.
# 5. Inner element number.
# 6. Label.
# 7. Latin Square Group.
# 8. PennElementType.
# 9. PennElementName.
# 10. Parameter.
# 11. Value.
# 12. EventTime.
# 13. Comments.
1637688913,fd22a06c80c2f107a1d9b4828172c606,2,0,intro,NULL,PennController,0,_Trial_,Start,1637688573127,NULL
1637688913,fd22a06c80c2f107a1d9b4828172c606,2,0,intro,NULL,PennController,0,_Trial_,End,1637688610875,NULL
1637688913,fd22a06c80c2f107a1d9b4828172c606,3,0,beginning,NULL,PennController,1,_Trial_,Start,1637688611059,NULL
1637688913,fd22a06c80c2f107a1d9b4828172c606,3,0,beginning,NULL,PennController,1,_Trial_,End,1637688628165,NULL
# 13. group.
# 14. labelled.
# 15. target.
# 16. item.
# 17. Comments.
1637688913,fd22a06c80c2f107a1d9b4828172c606,4,0,experiment,NULL,PennController,4,_Trial_,Start,1637688628171,B,FALSE,label2,animal,NULL
1637688913,fd22a06c80c2f107a1d9b4828172c606,4,0,experiment,NULL,SelectionGrid,test-phase,Selections,sub-dalmatian-1.jpg;sub-dalmatian-2.jpg|sub-dalmatian-1.jpg;true;6201:sub-dalmatian-2.jpg;true;7442,1637688628196,B,FALSE,label2,animal,NULL
1637688913,fd22a06c80c2f107a1d9b4828172c606,4,0,experiment,NULL,PennController,4,_Trial_,End,1637688657619,B,FALSE,label2,animal,NULL
1637688913,fd22a06c80c2f107a1d9b4828172c606,5,0,experiment,NULL,PennController,5,_Trial_,Start,1637688657628,B,FALSE,label1,beast,NULL
1637688913,fd22a06c80c2f107a1d9b4828172c606,5,0,experiment,NULL,SelectionGrid,test-phase,Selections,sub-trex-2.jpg;sub-trex-1.jpg|sub-trex-2.jpg;true;5184:sub-trex-1.jpg;true;7367,1637688657651,B,FALSE,label1,beast,NULL
1637688913,fd22a06c80c2f107a1d9b4828172c606,5,0,experiment,NULL,PennController,5,_Trial_,End,1637688694270,B,FALSE,label1,beast,NULL
1637688913,fd22a06c80c2f107a1d9b4828172c606,6,0,experiment,NULL,PennController,6,_Trial_,Start,1637688694274,B,TRUE,label2,electronics,NULL
1637688913,fd22a06c80c2f107a1d9b4828172c606,6,0,experiment,NULL,SelectionGrid,test-phase,Selections,sub-smart_phone-1.jpg;sub-smart_phone-2.jpg|sub-smart_phone-1.jpg;true;4625:sub-smart_phone-2.jpg;true;5917,1637688694288,B,TRUE,label2,electronics,NULL
1637688913,fd22a06c80c2f107a1d9b4828172c606,6,0,experiment,NULL,PennController,6,_Trial_,End,1637688721400,B,TRUE,label2,electronics,NULL
1637688913,fd22a06c80c2f107a1d9b4828172c606,7,0,experiment,NULL,PennController,7,_Trial_,Start,1637688721403,B,FALSE,label1,Filler-Color-red,NULL
1637688913,fd22a06c80c2f107a1d9b4828172c606,7,0,experiment,NULL,SelectionGrid,test-phase,Selections,red-rect.jpg|red-rect.jpg;true;4455:red-rect.jpg;true;5310:red-rect.jpg;true;7681:red-rect.jpg;true;8747:red-rect.jpg;true;9622:red-rect.jpg;true;11336,1637688721422,B,FALSE,label1,Filler-Color-red,NULL
1637688913,fd22a06c80c2f107a1d9b4828172c606,7,0,experiment,NULL,PennController,7,_Trial_,End,1637688746545,B,FALSE,label1,Filler-Color-red,NULL
1637688913,fd22a06c80c2f107a1d9b4828172c606,8,0,experiment,NULL,PennController,8,_Trial_,Start,1637688746550,B,TRUE,label1,fruit,NULL
1637688913,fd22a06c80c2f107a1d9b4828172c606,8,0,experiment,NULL,SelectionGrid,test-phase,Selections,sub-red_apple-1.jpg;sub-red_apple-2.jpg|sub-red_apple-1.jpg;true;8157:sub-red_apple-2.jpg;true;10042,1637688746563,B,TRUE,label1,fruit,NULL
1637688913,fd22a06c80c2f107a1d9b4828172c606,8,0,experiment,NULL,PennController,8,_Trial_,End,1637688779073,B,TRUE,label1,fruit,NULL
1637688913,fd22a06c80c2f107a1d9b4828172c606,9,0,experiment,NULL,PennController,9,_Trial_,Start,1637688779076,B,FALSE,label2,furniture,NULL
1637688913,fd22a06c80c2f107a1d9b4828172c606,9,0,experiment,NULL,SelectionGrid,test-phase,Selections,sub-wooden_chair-2.jpg;sub-wooden_chair-1.jpg|sub-wooden_chair-2.jpg;true;3939:sub-wooden_chair-1.jpg;true;5471,1637688779089,B,FALSE,label2,furniture,NULL
1637688913,fd22a06c80c2f107a1d9b4828172c606,9,0,experiment,NULL,PennController,9,_Trial_,End,1637688806958,B,FALSE,label2,furniture,NULL
1637688913,fd22a06c80c2f107a1d9b4828172c606,10,0,experiment,NULL,PennController,10,_Trial_,Start,1637688806962,B,FALSE,label1,light,NULL
1637688913,fd22a06c80c2f107a1d9b4828172c606,10,0,experiment,NULL,SelectionGrid,test-phase,Selections,sub-gooseneck_lamp-1.jpg;sub-gooseneck_lamp-2.jpg|sub-gooseneck_lamp-1.jpg;true;13152:sub-gooseneck_lamp-2.jpg;true;14111,1637688806975,B,FALSE,label1,light,NULL
1637688913,fd22a06c80c2f107a1d9b4828172c606,10,0,experiment,NULL,PennController,10,_Trial_,End,1637688842862,B,FALSE,label1,light,NULL
1637688913,fd22a06c80c2f107a1d9b4828172c606,11,0,experiment,NULL,PennController,11,_Trial_,Start,1637688842866,B,FALSE,label1,Filler-Shape-triangle,NULL
1637688913,fd22a06c80c2f107a1d9b4828172c606,11,0,experiment,NULL,SelectionGrid,test-phase,Selections,triangle-5.jpg;triangle-3.jpg;triangle-2.jpg;triangle-1.jpg;triangle-4.jpg|triangle-5.jpg;true;2311:triangle-3.jpg;true;3073:triangle-2.jpg;true;3713:triangle-1.jpg;true;5339:triangle-4.jpg;true;7928,1637688842928,B,FALSE,label1,Filler-Shape-triangle,NULL
1637688913,fd22a06c80c2f107a1d9b4828172c606,11,0,experiment,NULL,PennController,11,_Trial_,End,1637688864221,B,FALSE,label1,Filler-Shape-triangle,NULL
1637688913,fd22a06c80c2f107a1d9b4828172c606,12,0,experiment,NULL,PennController,12,_Trial_,Start,1637688864226,B,TRUE,label2,vegetable,NULL
1637688913,fd22a06c80c2f107a1d9b4828172c606,12,0,experiment,NULL,SelectionGrid,test-phase,Selections,sub-green_pepper-1.jpg;sub-green_pepper-2.jpg|sub-green_pepper-1.jpg;true;3873:sub-green_pepper-2.jpg;true;6579,1637688864238,B,TRUE,label2,vegetable,NULL
1637688913,fd22a06c80c2f107a1d9b4828172c606,12,0,experiment,NULL,PennController,12,_Trial_,End,1637688891612,B,TRUE,label2,vegetable,NULL
1637688913,fd22a06c80c2f107a1d9b4828172c606,13,0,experiment,NULL,PennController,13,_Trial_,Start,1637688891616,B,TRUE,label1,vehicle,NULL
1637688913,fd22a06c80c2f107a1d9b4828172c606,13,0,experiment,NULL,SelectionGrid,test-phase,Selections,sub-racecar-2.jpg;sub-racecar-1.jpg|sub-racecar-2.jpg;true;2979:sub-racecar-1.jpg;true;5272,1637688891628,B,TRUE,label1,vehicle,NULL
1637688913,fd22a06c80c2f107a1d9b4828172c606,13,0,experiment,NULL,PennController,13,_Trial_,End,1637688919100,B,TRUE,label1,vehicle,NULL
# 13. window_size.
# 14. Comments.
1637688913,fd22a06c80c2f107a1d9b4828172c606,14,0,end,NULL,PennController,2,_Trial_,Start,1637688919103,1366x635,NULL
1637688913,fd22a06c80c2f107a1d9b4828172c606,14,0,end,NULL,PennController,2,_Trial_,End,1637688921825,1366x635,NULL
#
# Results on Tue, 23 Nov 2021 17:35:16 GMT
# USER AGENT: Mozilla/5.0 (Windows NT 10.0; Win64; x64) AppleWebKit/537.36 (KHTML, like Gecko) Chrome/96.0.4664.45 Safari/537.36
# Design number was non-random = 13
#
# Columns below this comment are as follows:
# 1. Results reception time.
# 2. MD5 hash of participant's IP address.
# 3. Controller name.
# 4. Order number of item.
# 5. Inner element number.
# 6. Label.
# 7. Latin Square Group.
# 8. PennElementType.
# 9. PennElementName.
# 10. Parameter.
# 11. Value.
# 12. EventTime.
# 13. Comments.
1637688916,fb235d575bbe3ee24ac1d630ea362535,2,0,intro,NULL,PennController,0,_Trial_,Start,1637688633153,NULL
1637688916,fb235d575bbe3ee24ac1d630ea362535,2,0,intro,NULL,PennController,0,_Trial_,End,1637688635396,NULL
1637688916,fb235d575bbe3ee24ac1d630ea362535,3,0,beginning,NULL,PennController,1,_Trial_,Start,1637688635398,NULL
1637688916,fb235d575bbe3ee24ac1d630ea362535,3,0,beginning,NULL,PennController,1,_Trial_,End,1637688707471,NULL
# 13. group.
# 14. labelled.
# 15. target.
# 16. item.
# 17. Comments.
1637688916,fb235d575bbe3ee24ac1d630ea362535,4,0,experiment,NULL,PennController,4,_Trial_,Start,1637688707474,B,FALSE,label2,animal,NULL
1637688916,fb235d575bbe3ee24ac1d630ea362535,4,0,experiment,NULL,SelectionGrid,test-phase,Selections,sub-dalmatian-2.jpg;sub-dalmatian-1.jpg|sub-dalmatian-2.jpg;true;5693:sub-dalmatian-1.jpg;true;6392,1637688707479,B,FALSE,label2,animal,NULL
1637688916,fb235d575bbe3ee24ac1d630ea362535,4,0,experiment,NULL,PennController,4,_Trial_,End,1637688736588,B,FALSE,label2,animal,NULL
1637688916,fb235d575bbe3ee24ac1d630ea362535,5,0,experiment,NULL,PennController,5,_Trial_,Start,1637688736590,B,FALSE,label1,beast,NULL
1637688916,fb235d575bbe3ee24ac1d630ea362535,5,0,experiment,NULL,SelectionGrid,test-phase,Selections,sub-trex-1.jpg;sub-trex-2.jpg|sub-trex-1.jpg;true;7238:sub-trex-2.jpg;true;8146,1637688736593,B,FALSE,label1,beast,NULL
1637688916,fb235d575bbe3ee24ac1d630ea362535,5,0,experiment,NULL,PennController,5,_Trial_,End,1637688769989,B,FALSE,label1,beast,NULL
1637688916,fb235d575bbe3ee24ac1d630ea362535,6,0,experiment,NULL,PennController,6,_Trial_,Start,1637688769991,B,TRUE,label2,electronics,NULL
1637688916,fb235d575bbe3ee24ac1d630ea362535,6,0,experiment,NULL,SelectionGrid,test-phase,Selections,sub-smart_phone-2.jpg;sub-smart_phone-1.jpg|sub-smart_phone-2.jpg;true;4100:sub-smart_phone-1.jpg;true;6824,1637688769994,B,TRUE,label2,electronics,NULL
1637688916,fb235d575bbe3ee24ac1d630ea362535,6,0,experiment,NULL,PennController,6,_Trial_,End,1637688800122,B,TRUE,label2,electronics,NULL
1637688916,fb235d575bbe3ee24ac1d630ea362535,7,0,experiment,NULL,PennController,7,_Trial_,Start,1637688800123,B,FALSE,label1,Filler-Color-red,NULL
1637688916,fb235d575bbe3ee24ac1d630ea362535,7,0,experiment,NULL,SelectionGrid,test-phase,Selections,red-rect.jpg|red-rect.jpg;true;1965:red-rect.jpg;true;2318:red-rect.jpg;true;4226:red-rect.jpg;true;5375:red-rect.jpg;true;5683,1637688800127,B,FALSE,label1,Filler-Color-red,NULL
1637688916,fb235d575bbe3ee24ac1d630ea362535,7,0,experiment,NULL,PennController,7,_Trial_,End,1637688820354,B,FALSE,label1,Filler-Color-red,NULL
1637688916,fb235d575bbe3ee24ac1d630ea362535,8,0,experiment,NULL,PennController,8,_Trial_,Start,1637688820355,B,TRUE,label1,fruit,NULL
1637688916,fb235d575bbe3ee24ac1d630ea362535,8,0,experiment,NULL,SelectionGrid,test-phase,Selections,sub-red_apple-1.jpg;sub-red_apple-2.jpg|sub-red_apple-1.jpg;true;2748:sub-red_apple-2.jpg;true;4160,1637688820360,B,TRUE,label1,fruit,NULL
1637688916,fb235d575bbe3ee24ac1d630ea362535,8,0,experiment,NULL,PennController,8,_Trial_,End,1637688848317,B,TRUE,label1,fruit,NULL
1637688916,fb235d575bbe3ee24ac1d630ea362535,9,0,experiment,NULL,PennController,9,_Trial_,Start,1637688848319,B,FALSE,label2,furniture,NULL
1637688916,fb235d575bbe3ee24ac1d630ea362535,9,0,experiment,NULL,SelectionGrid,test-phase,Selections,sub-wooden_chair-2.jpg;sub-wooden_chair-1.jpg|sub-wooden_chair-2.jpg;true;1716:sub-wooden_chair-1.jpg;true;2696,1637688848323,B,FALSE,label2,furniture,NULL
1637688916,fb235d575bbe3ee24ac1d630ea362535,9,0,experiment,NULL,PennController,9,_Trial_,End,1637688875818,B,FALSE,label2,furniture,NULL
1637688916,fb235d575bbe3ee24ac1d630ea362535,10,0,experiment,NULL,PennController,10,_Trial_,Start,1637688875819,B,FALSE,label1,light,NULL
1637688916,fb235d575bbe3ee24ac1d630ea362535,10,0,experiment,NULL,SelectionGrid,test-phase,Selections,sub-gooseneck_lamp-1.jpg;sub-gooseneck_lamp-2.jpg|sub-gooseneck_lamp-1.jpg;true;2063:sub-gooseneck_lamp-2.jpg;true;2779,1637688875824,B,FALSE,label1,light,NULL
1637688916,fb235d575bbe3ee24ac1d630ea362535,10,0,experiment,NULL,PennController,10,_Trial_,End,1637688901041,B,FALSE,label1,light,NULL
1637688916,fb235d575bbe3ee24ac1d630ea362535,11,0,experiment,NULL,PennController,11,_Trial_,Start,1637688901043,B,FALSE,label1,Filler-Shape-triangle,NULL
1637688916,fb235d575bbe3ee24ac1d630ea362535,11,0,experiment,NULL,SelectionGrid,test-phase,Selections,triangle-5.jpg;triangle-3.jpg;triangle-2.jpg;triangle-4.jpg;triangle-1.jpg|triangle-5.jpg;true;2702:triangle-3.jpg;true;3142:triangle-2.jpg;true;3482:triangle-4.jpg;true;3766:triangle-1.jpg;true;4730,1637688901047,B,FALSE,label1,Filler-Shape-triangle,NULL
1637688916,fb235d575bbe3ee24ac1d630ea362535,11,0,experiment,NULL,PennController,11,_Trial_,End,1637688923322,B,FALSE,label1,Filler-Shape-triangle,NULL
1637688916,fb235d575bbe3ee24ac1d630ea362535,12,0,experiment,NULL,PennController,12,_Trial_,Start,1637688923323,B,TRUE,label2,vegetable,NULL
1637688916,fb235d575bbe3ee24ac1d630ea362535,12,0,experiment,NULL,SelectionGrid,test-phase,Selections,sub-green_pepper-2.jpg;sub-green_pepper-1.jpg|sub-green_pepper-2.jpg;true;4075:sub-green_pepper-1.jpg;true;6175,1637688923327,B,TRUE,label2,vegetable,NULL
1637688916,fb235d575bbe3ee24ac1d630ea362535,12,0,experiment,NULL,PennController,12,_Trial_,End,1637688949798,B,TRUE,label2,vegetable,NULL
1637688916,fb235d575bbe3ee24ac1d630ea362535,13,0,experiment,NULL,PennController,13,_Trial_,Start,1637688949799,B,TRUE,label1,vehicle,NULL
1637688916,fb235d575bbe3ee24ac1d630ea362535,13,0,experiment,NULL,SelectionGrid,test-phase,Selections,sub-racecar-1.jpg;sub-racecar-2.jpg|sub-racecar-1.jpg;true;3245:sub-racecar-2.jpg;true;4973,1637688949804,B,TRUE,label1,vehicle,NULL
1637688916,fb235d575bbe3ee24ac1d630ea362535,13,0,experiment,NULL,PennController,13,_Trial_,End,1637688977306,B,TRUE,label1,vehicle,NULL
# 13. window_size.
# 14. Comments.
1637688916,fb235d575bbe3ee24ac1d630ea362535,14,0,end,NULL,PennController,2,_Trial_,Start,1637688977307,1280x577,NULL
1637688916,fb235d575bbe3ee24ac1d630ea362535,14,0,end,NULL,PennController,2,_Trial_,End,1637688979369,1280x577,NULL
#
# Results on Tue, 23 Nov 2021 17:36:24 GMT
# USER AGENT: Mozilla/5.0 (Windows NT 10.0; Win64; x64; rv:94.0) Gecko/20100101 Firefox/94.0
# Design number was non-random = 20
#
# Columns below this comment are as follows:
# 1. Results reception time.
# 2. MD5 hash of participant's IP address.
# 3. Controller name.
# 4. Order number of item.
# 5. Inner element number.
# 6. Label.
# 7. Latin Square Group.
# 8. PennElementType.
# 9. PennElementName.
# 10. Parameter.
# 11. Value.
# 12. EventTime.
# 13. Comments.
1637688984,3d8ba174aa2bd5e81d23e4444ef7db96,2,0,intro,NULL,PennController,0,_Trial_,Start,1637688686871,NULL
1637688984,3d8ba174aa2bd5e81d23e4444ef7db96,2,0,intro,NULL,PennController,0,_Trial_,End,1637688690550,NULL
1637688984,3d8ba174aa2bd5e81d23e4444ef7db96,3,0,beginning,NULL,PennController,1,_Trial_,Start,1637688690566,NULL
1637688984,3d8ba174aa2bd5e81d23e4444ef7db96,3,0,beginning,NULL,PennController,1,_Trial_,End,1637688700673,NULL
# 13. group.
# 14. labelled.
# 15. target.
# 16. item.
# 17. Comments.
1637688984,3d8ba174aa2bd5e81d23e4444ef7db96,4,0,experiment,NULL,PennController,4,_Trial_,Start,1637688700679,A,TRUE,label1,animal,NULL
1637688984,3d8ba174aa2bd5e81d23e4444ef7db96,4,0,experiment,NULL,SelectionGrid,test-phase,Selections,sub-dalmatian-1.jpg;sub-dalmatian-2.jpg|sub-dalmatian-1.jpg;true;2776:sub-dalmatian-2.jpg;true;6369,1637688700703,A,TRUE,label1,animal,NULL
1637688984,3d8ba174aa2bd5e81d23e4444ef7db96,4,0,experiment,NULL,PennController,4,_Trial_,End,1637688729219,A,TRUE,label1,animal,NULL
1637688984,3d8ba174aa2bd5e81d23e4444ef7db96,5,0,experiment,NULL,PennController,5,_Trial_,Start,1637688729223,A,TRUE,label2,beast,NULL
1637688984,3d8ba174aa2bd5e81d23e4444ef7db96,5,0,experiment,NULL,SelectionGrid,test-phase,Selections,sub-trex-2.jpg;basic-dinosaur-3.jpg;sub-trex-1.jpg|sub-trex-2.jpg;true;5164:basic-dinosaur-2.jpg;true;7348:basic-dinosaur-2.jpg;false;10685:basic-dinosaur-3.jpg;true;14331:sub-trex-1.jpg;true;18892,1637688729235,A,TRUE,label2,beast,NULL
1637688984,3d8ba174aa2bd5e81d23e4444ef7db96,5,0,experiment,NULL,PennController,5,_Trial_,End,1637688770315,A,TRUE,label2,beast,NULL
1637688984,3d8ba174aa2bd5e81d23e4444ef7db96,6,0,experiment,NULL,PennController,6,_Trial_,Start,1637688770322,A,FALSE,label1,electronics,NULL
1637688984,3d8ba174aa2bd5e81d23e4444ef7db96,6,0,experiment,NULL,SelectionGrid,test-phase,Selections,contrast-flip_phone-1.jpg;contrast-flip_phone-2.jpg;sub-smart_phone-2.jpg|contrast-flip_phone-1.jpg;true;2793:contrast-flip_phone-2.jpg;true;6954:sub-smart_phone-2.jpg;true;8186,1637688770338,A,FALSE,label1,electronics,NULL
1637688984,3d8ba174aa2bd5e81d23e4444ef7db96,6,0,experiment,NULL,PennController,6,_Trial_,End,1637688802626,A,FALSE,label1,electronics,NULL
1637688984,3d8ba174aa2bd5e81d23e4444ef7db96,7,0,experiment,NULL,PennController,7,_Trial_,Start,1637688802632,A,FALSE,label1,Filler-Color-red,NULL
1637688984,3d8ba174aa2bd5e81d23e4444ef7db96,7,0,experiment,NULL,SelectionGrid,test-phase,Selections,red-rect.jpg|red-rect.jpg;true;3817:red-rect.jpg;true;4897:red-rect.jpg;true;5993:red-rect.jpg;true;8016:red-rect.jpg;true;9137:red-rect.jpg;true;10017,1637688802645,A,FALSE,label1,Filler-Color-red,NULL
1637688984,3d8ba174aa2bd5e81d23e4444ef7db96,7,0,experiment,NULL,PennController,7,_Trial_,End,1637688827177,A,FALSE,label1,Filler-Color-red,NULL
1637688984,3d8ba174aa2bd5e81d23e4444ef7db96,8,0,experiment,NULL,PennController,8,_Trial_,Start,1637688827183,A,FALSE,label2,fruit,NULL
1637688984,3d8ba174aa2bd5e81d23e4444ef7db96,8,0,experiment,NULL,SelectionGrid,test-phase,Selections,sub-red_apple-1.jpg;sub-red_apple-2.jpg|sub-red_apple-1.jpg;true;2007:sub-red_apple-2.jpg;true;3271,1637688827195,A,FALSE,label2,fruit,NULL
1637688984,3d8ba174aa2bd5e81d23e4444ef7db96,8,0,experiment,NULL,PennController,8,_Trial_,End,1637688850984,A,FALSE,label2,fruit,NULL
1637688984,3d8ba174aa2bd5e81d23e4444ef7db96,9,0,experiment,NULL,PennController,9,_Trial_,Start,1637688850988,A,TRUE,label1,furniture,NULL
1637688984,3d8ba174aa2bd5e81d23e4444ef7db96,9,0,experiment,NULL,SelectionGrid,test-phase,Selections,sub-wooden_chair-2.jpg;sub-wooden_chair-1.jpg|sub-wooden_chair-2.jpg;true;2981:sub-wooden_chair-1.jpg;true;6054,1637688850997,A,TRUE,label1,furniture,NULL
1637688984,3d8ba174aa2bd5e81d23e4444ef7db96,9,0,experiment,NULL,PennController,9,_Trial_,End,1637688878161,A,TRUE,label1,furniture,NULL
1637688984,3d8ba174aa2bd5e81d23e4444ef7db96,10,0,experiment,NULL,PennController,10,_Trial_,Start,1637688878164,A,TRUE,label2,light,NULL
1637688984,3d8ba174aa2bd5e81d23e4444ef7db96,10,0,experiment,NULL,SelectionGrid,test-phase,Selections,sub-gooseneck_lamp-1.jpg;sub-gooseneck_lamp-2.jpg|sub-gooseneck_lamp-1.jpg;true;2936:sub-gooseneck_lamp-2.jpg;true;10272,1637688878174,A,TRUE,label2,light,NULL
1637688984,3d8ba174aa2bd5e81d23e4444ef7db96,10,0,experiment,NULL,PennController,10,_Trial_,End,1637688908872,A,TRUE,label2,light,NULL
1637688984,3d8ba174aa2bd5e81d23e4444ef7db96,11,0,experiment,NULL,PennController,11,_Trial_,Start,1637688908876,A,FALSE,label1,Filler-Shape-triangle,NULL
1637688984,3d8ba174aa2bd5e81d23e4444ef7db96,11,0,experiment,NULL,SelectionGrid,test-phase,Selections,triangle-5.jpg;triangle-3.jpg;triangle-2.jpg;triangle-4.jpg;triangle-1.jpg|triangle-5.jpg;true;2390:triangle-3.jpg;true;2998:triangle-2.jpg;true;3574:triangle-4.jpg;true;4125:triangle-1.jpg;true;5101,1637688908888,A,FALSE,label1,Filler-Shape-triangle,NULL
1637688984,3d8ba174aa2bd5e81d23e4444ef7db96,11,0,experiment,NULL,PennController,11,_Trial_,End,1637688927114,A,FALSE,label1,Filler-Shape-triangle,NULL
1637688984,3d8ba174aa2bd5e81d23e4444ef7db96,12,0,experiment,NULL,PennController,12,_Trial_,Start,1637688927116,A,FALSE,label1,vegetable,NULL
1637688984,3d8ba174aa2bd5e81d23e4444ef7db96,12,0,experiment,NULL,SelectionGrid,test-phase,Selections,sub-green_pepper-1.jpg;sub-green_pepper-2.jpg|sub-green_pepper-1.jpg;true;1290:sub-green_pepper-2.jpg;true;6121,1637688927127,A,FALSE,label1,vegetable,NULL
1637688984,3d8ba174aa2bd5e81d23e4444ef7db96,12,0,experiment,NULL,PennController,12,_Trial_,End,1637688954707,A,FALSE,label1,vegetable,NULL
1637688984,3d8ba174aa2bd5e81d23e4444ef7db96,13,0,experiment,NULL,PennController,13,_Trial_,Start,1637688954710,A,FALSE,label2,vehicle,NULL
