#,,,,,,,,,,,,,,
# Results on Mon, 11 Oct 2021 23:20:42 GMT,,,,,,,,,,,,,
# USER AGENT: Mozilla/5.0 (Windows NT 10.0; Win64; x64) AppleWebKit/537.36 (KHTML, like Gecko) Chrome/94.0.4606.61 Safari/537.36 OPR/80.0.4170.16,,,,,,,,,,,,,
# Design number was non-random = 14,,,,,,,,,,,,,,
#,,,,,,,,,,,,,,
# Columns below this comment are as follows:,,,,,,,,,,,,,,
# 1. Results reception time.,,,,,,,,,,,,,,
# 2. MD5 hash of participant's IP address.,,,,,,,,,,,,,,
# 3. Controller name.,,,,,,,,,,,,,,
# 4. Order number of item.,,,,,,,,,,,,,,
# 5. Inner element number.,,,,,,,,,,,,,,
# 6. Label.,,,,,,,,,,,,,,
# 7. Latin Square Group.,,,,,,,,,,,,,,
# 8. PennElementType.,,,,,,,,,,,,,,
# 9. PennElementName.,,,,,,,,,,,,,,
# 10. Parameter.,,,,,,,,,,,,,,
# 11. Value.,,,,,,,,,,,,,,
# 12. EventTime.,,,,,,,,,,,,,,
# 13. ID.,,,,,,,,,,,,,,
# 14. Comments.,,,,,,,,,,,,,,
1633994442,2f9a7341a6e6ed52e7847d0b824ac59f,2,0,intro,NULL,PennController,0,_Trial_,Start,1.63399E+12,test,NULL,,
1633994442,2f9a7341a6e6ed52e7847d0b824ac59f,2,0,intro,NULL,PennController,0,_Trial_,End,1.63399E+12,test,NULL,,
# 13. Comments.,,,,,,,,,,,,,,
1633994442,2f9a7341a6e6ed52e7847d0b824ac59f,3,0,beginning,NULL,PennController,1,_Trial_,Start,1.63399E+12,NULL,,,
1633994442,2f9a7341a6e6ed52e7847d0b824ac59f,3,0,beginning,NULL,PennController,1,_Trial_,End,1.63399E+12,NULL,,,
# 13. group.,,,,,,,,,,,,,,
# 14. condition.,,,,,,,,,,,,,,
# 15. item.,,,,,,,,,,,,,,
# 16. Comments.,,,,,,,,,,,,,,
1633994442,2f9a7341a6e6ed52e7847d0b824ac59f,4,0,experiment,NULL,PennController,4,_Trial_,Start,1.63399E+12,C,single,animal,NULL
1633994442,2f9a7341a6e6ed52e7847d0b824ac59f,4,0,experiment,NULL,SelectionGrid,test-phase,Selections,sup-light-1.jpg|sup-light-1.jpg;true;16166,1.63399E+12,C,single,animal,NULL
1633994442,2f9a7341a6e6ed52e7847d0b824ac59f,4,0,experiment,NULL,PennController,4,_Trial_,End,1.63399E+12,C,single,animal,NULL
1633994442,2f9a7341a6e6ed52e7847d0b824ac59f,5,0,experiment,NULL,PennController,5,_Trial_,Start,1.63399E+12,C,single,beast,NULL
1633994442,2f9a7341a6e6ed52e7847d0b824ac59f,5,0,experiment,NULL,SelectionGrid,test-phase,Selections,sup-vehicle-4.jpg|sup-vehicle-4.jpg;true;10403,1.63399E+12,C,single,beast,NULL
1633994442,2f9a7341a6e6ed52e7847d0b824ac59f,5,0,experiment,NULL,PennController,5,_Trial_,End,1.63399E+12,C,single,beast,NULL
1633994442,2f9a7341a6e6ed52e7847d0b824ac59f,6,0,experiment,NULL,PennController,6,_Trial_,Start,1.63399E+12,C,contrast,electronics,NULL
1633994442,2f9a7341a6e6ed52e7847d0b824ac59f,6,0,experiment,NULL,SelectionGrid,test-phase,Selections,sup-fruit-5.jpg|sup-fruit-5.jpg;true;32962,1.63399E+12,C,contrast,electronics,NULL
1633994442,2f9a7341a6e6ed52e7847d0b824ac59f,6,0,experiment,NULL,PennController,6,_Trial_,End,1.63399E+12,C,contrast,electronics,NULL
1633994442,2f9a7341a6e6ed52e7847d0b824ac59f,7,0,experiment,NULL,PennController,7,_Trial_,Start,1.63399E+12,C,single,Filler-Color-red,NULL
1633994442,2f9a7341a6e6ed52e7847d0b824ac59f,7,0,experiment,NULL,SelectionGrid,test-phase,Selections,blue-rect.jpg|blue-rect.jpg;true;889,1.63399E+12,C,single,Filler-Color-red,NULL
1633994442,2f9a7341a6e6ed52e7847d0b824ac59f,7,0,experiment,NULL,PennController,7,_Trial_,End,1.63399E+12,C,single,Filler-Color-red,NULL
1633994442,2f9a7341a6e6ed52e7847d0b824ac59f,8,0,experiment,NULL,PennController,8,_Trial_,Start,1.63399E+12,C,contrast,fruit,NULL
1633994442,2f9a7341a6e6ed52e7847d0b824ac59f,8,0,experiment,NULL,SelectionGrid,test-phase,Selections,basic-apple-3.jpg|basic-apple-3.jpg;true;1332,1.63399E+12,C,contrast,fruit,NULL
1633994442,2f9a7341a6e6ed52e7847d0b824ac59f,8,0,experiment,NULL,PennController,8,_Trial_,End,1.63399E+12,C,contrast,fruit,NULL
1633994442,2f9a7341a6e6ed52e7847d0b824ac59f,9,0,experiment,NULL,PennController,9,_Trial_,Start,1.63399E+12,C,single,furniture,NULL
1633994442,2f9a7341a6e6ed52e7847d0b824ac59f,9,0,experiment,NULL,SelectionGrid,test-phase,Selections,sup-light-5.jpg|sup-light-5.jpg;true;2307,1.63399E+12,C,single,furniture,NULL
1633994442,2f9a7341a6e6ed52e7847d0b824ac59f,9,0,experiment,NULL,PennController,9,_Trial_,End,1.63399E+12,C,single,furniture,NULL
1633994442,2f9a7341a6e6ed52e7847d0b824ac59f,10,0,experiment,NULL,PennController,10,_Trial_,Start,1.63399E+12,C,single,light,NULL
1633994442,2f9a7341a6e6ed52e7847d0b824ac59f,10,0,experiment,NULL,SelectionGrid,test-phase,Selections,basic-lamp-3.jpg|basic-lamp-3.jpg;true;11604,1.63399E+12,C,single,light,NULL
1633994442,2f9a7341a6e6ed52e7847d0b824ac59f,10,0,experiment,NULL,PennController,10,_Trial_,End,1.63399E+12,C,single,light,NULL
1633994442,2f9a7341a6e6ed52e7847d0b824ac59f,11,0,experiment,NULL,PennController,11,_Trial_,Start,1.63399E+12,C,single,Filler-Shape-triangle,NULL
1633994442,2f9a7341a6e6ed52e7847d0b824ac59f,11,0,experiment,NULL,SelectionGrid,test-phase,Selections,lines-1.jpg|lines-1.jpg;true;1342,1.63399E+12,C,single,Filler-Shape-triangle,NULL
1633994442,2f9a7341a6e6ed52e7847d0b824ac59f,11,0,experiment,NULL,PennController,11,_Trial_,End,1.63399E+12,C,single,Filler-Shape-triangle,NULL
1633994442,2f9a7341a6e6ed52e7847d0b824ac59f,12,0,experiment,NULL,PennController,12,_Trial_,Start,1.63399E+12,C,contrast,vegetable,NULL
1633994442,2f9a7341a6e6ed52e7847d0b824ac59f,12,0,experiment,NULL,SelectionGrid,test-phase,Selections,contrast-red_pepper-1.jpg|contrast-red_pepper-1.jpg;true;1917,1.63399E+12,C,contrast,vegetable,NULL
1633994442,2f9a7341a6e6ed52e7847d0b824ac59f,12,0,experiment,NULL,PennController,12,_Trial_,End,1.63399E+12,C,contrast,vegetable,NULL
1633994442,2f9a7341a6e6ed52e7847d0b824ac59f,13,0,experiment,NULL,PennController,13,_Trial_,Start,1.63399E+12,C,contrast,vehicle,NULL
1633994442,2f9a7341a6e6ed52e7847d0b824ac59f,13,0,experiment,NULL,SelectionGrid,test-phase,Selections,sup-vegetable-1.jpg|sup-vegetable-1.jpg;true;1397,1.63399E+12,C,contrast,vehicle,NULL
1633994442,2f9a7341a6e6ed52e7847d0b824ac59f,13,0,experiment,NULL,PennController,13,_Trial_,End,1.63399E+12,C,contrast,vehicle,NULL
# 13. window_size.,,,,,,,,,,,,,,
# 14. Comments.,,,,,,,,,,,,,,
1633994442,2f9a7341a6e6ed52e7847d0b824ac59f,14,0,end,NULL,PennController,2,_Trial_,Start,1.63399E+12,1880x939,NULL,,
1633994442,2f9a7341a6e6ed52e7847d0b824ac59f,14,0,end,NULL,PennController,2,_Trial_,End,1.63399E+12,1880x939,NULL,,
#,,,,,,,,,,,,,,
# Results on Mon, 11 Oct 2021 23:28:50 GMT,,,,,,,,,,,,,
# USER AGENT: Mozilla/5.0 (Macintosh; Intel Mac OS X 10_15_7) AppleWebKit/537.36 (KHTML, like Gecko) Chrome/94.0.4606.71 Safari/537.36,,,,,,,,,,,,,
# Design number was non-random = 15,,,,,,,,,,,,,,
#,,,,,,,,,,,,,,
# Columns below this comment are as follows:,,,,,,,,,,,,,,
# 1. Results reception time.,,,,,,,,,,,,,,
# 2. MD5 hash of participant's IP address.,,,,,,,,,,,,,,
# 3. Controller name.,,,,,,,,,,,,,,
# 4. Order number of item.,,,,,,,,,,,,,,
# 5. Inner element number.,,,,,,,,,,,,,,
# 6. Label.,,,,,,,,,,,,,,
# 7. Latin Square Group.,,,,,,,,,,,,,,
# 8. PennElementType.,,,,,,,,,,,,,,
# 9. PennElementName.,,,,,,,,,,,,,,
# 10. Parameter.,,,,,,,,,,,,,,
# 11. Value.,,,,,,,,,,,,,,
# 12. EventTime.,,,,,,,,,,,,,,
# 13. ID.,,,,,,,,,,,,,,
# 14. Comments.,,,,,,,,,,,,,,
1633994930,5ab45ca0d6e1938e5afea5031a0e8bb4,2,0,intro,NULL,PennController,0,_Trial_,Start,1.63399E+12,6357,NULL,,
1633994930,5ab45ca0d6e1938e5afea5031a0e8bb4,2,0,intro,NULL,PennController,0,_Trial_,End,1.63399E+12,6357,NULL,,
# 13. Comments.,,,,,,,,,,,,,,
1633994930,5ab45ca0d6e1938e5afea5031a0e8bb4,3,0,beginning,NULL,PennController,1,_Trial_,Start,1.63399E+12,NULL,,,
1633994930,5ab45ca0d6e1938e5afea5031a0e8bb4,3,0,beginning,NULL,PennController,1,_Trial_,End,1.63399E+12,NULL,,,
# 13. group.,,,,,,,,,,,,,,
# 14. condition.,,,,,,,,,,,,,,
# 15. item.,,,,,,,,,,,,,,
# 16. Comments.,,,,,,,,,,,,,,
1633994930,5ab45ca0d6e1938e5afea5031a0e8bb4,4,0,experiment,NULL,PennController,4,_Trial_,Start,1.63399E+12,D,contrast,animal,NULL
1633994930,5ab45ca0d6e1938e5afea5031a0e8bb4,4,0,experiment,NULL,SelectionGrid,test-phase,Selections,sub-dalmatian-2.jpg;sub-dalmatian-1.jpg|sub-dalmatian-2.jpg;true;4483:sub-dalmatian-1.jpg;true;5355,1.63399E+12,D,contrast,animal,NULL
1633994930,5ab45ca0d6e1938e5afea5031a0e8bb4,4,0,experiment,NULL,PennController,4,_Trial_,End,1.63399E+12,D,contrast,animal,NULL
1633994930,5ab45ca0d6e1938e5afea5031a0e8bb4,5,0,experiment,NULL,PennController,5,_Trial_,Start,1.63399E+12,D,contrast,beast,NULL
1633994930,5ab45ca0d6e1938e5afea5031a0e8bb4,5,0,experiment,NULL,SelectionGrid,test-phase,Selections,sub-trex-1.jpg;sub-trex-2.jpg|sub-trex-1.jpg;true;2802:sub-trex-2.jpg;true;3969,1.63399E+12,D,contrast,beast,NULL
1633994930,5ab45ca0d6e1938e5afea5031a0e8bb4,5,0,experiment,NULL,PennController,5,_Trial_,End,1.63399E+12,D,contrast,beast,NULL
1633994930,5ab45ca0d6e1938e5afea5031a0e8bb4,6,0,experiment,NULL,PennController,6,_Trial_,Start,1.63399E+12,D,single,electronics,NULL
1633994930,5ab45ca0d6e1938e5afea5031a0e8bb4,6,0,experiment,NULL,SelectionGrid,test-phase,Selections,sub-smart_phone-2.jpg;sub-smart_phone-1.jpg|sub-smart_phone-2.jpg;true;4055:sub-smart_phone-1.jpg;true;4916,1.63399E+12,D,single,electronics,NULL
1633994930,5ab45ca0d6e1938e5afea5031a0e8bb4,6,0,experiment,NULL,PennController,6,_Trial_,End,1.63399E+12,D,single,electronics,NULL
1633994930,5ab45ca0d6e1938e5afea5031a0e8bb4,7,0,experiment,NULL,PennController,7,_Trial_,Start,1.63399E+12,D,single,Filler-Color-red,NULL
1633994930,5ab45ca0d6e1938e5afea5031a0e8bb4,7,0,experiment,NULL,SelectionGrid,test-phase,Selections,red-rect.jpg|red-rect.jpg;true;2575:red-rect.jpg;true;2986:red-rect.jpg;true;3413:red-rect.jpg;true;4122:green-rect.jpg;true;4557:red-rect.jpg;true;4977:red-rect.jpg;true;5332:green-rect.jpg;false;5726,1.63399E+12,D,single,Filler-Color-red,NULL
1633994930,5ab45ca0d6e1938e5afea5031a0e8bb4,7,0,experiment,NULL,PennController,7,_Trial_,End,1.63399E+12,D,single,Filler-Color-red,NULL
1633994930,5ab45ca0d6e1938e5afea5031a0e8bb4,8,0,experiment,NULL,PennController,8,_Trial_,Start,1.63399E+12,D,single,fruit,NULL
1633994930,5ab45ca0d6e1938e5afea5031a0e8bb4,8,0,experiment,NULL,SelectionGrid,test-phase,Selections,sub-red_apple-2.jpg;sub-red_apple-1.jpg|sub-red_apple-2.jpg;true;1921:sub-red_apple-1.jpg;true;2349,1.63399E+12,D,single,fruit,NULL
1633994930,5ab45ca0d6e1938e5afea5031a0e8bb4,8,0,experiment,NULL,PennController,8,_Trial_,End,1.63399E+12,D,single,fruit,NULL
1633994930,5ab45ca0d6e1938e5afea5031a0e8bb4,9,0,experiment,NULL,PennController,9,_Trial_,Start,1.63399E+12,D,contrast,furniture,NULL
1633994930,5ab45ca0d6e1938e5afea5031a0e8bb4,9,0,experiment,NULL,SelectionGrid,test-phase,Selections,sub-wooden_chair-2.jpg;sub-wooden_chair-1.jpg|sub-wooden_chair-2.jpg;true;2571:sub-wooden_chair-1.jpg;true;3828,1.63399E+12,D,contrast,furniture,NULL
1633994930,5ab45ca0d6e1938e5afea5031a0e8bb4,9,0,experiment,NULL,PennController,9,_Trial_,End,1.63399E+12,D,contrast,furniture,NULL
1633994930,5ab45ca0d6e1938e5afea5031a0e8bb4,10,0,experiment,NULL,PennController,10,_Trial_,Start,1.63399E+12,D,contrast,light,NULL
1633994930,5ab45ca0d6e1938e5afea5031a0e8bb4,10,0,experiment,NULL,SelectionGrid,test-phase,Selections,sub-gooseneck_lamp-2.jpg;sub-gooseneck_lamp-1.jpg|sub-gooseneck_lamp-2.jpg;true;3202:sub-gooseneck_lamp-1.jpg;true;3894,1.63399E+12,D,contrast,light,NULL
1633994930,5ab45ca0d6e1938e5afea5031a0e8bb4,10,0,experiment,NULL,PennController,10,_Trial_,End,1.63399E+12,D,contrast,light,NULL
1633994930,5ab45ca0d6e1938e5afea5031a0e8bb4,11,0,experiment,NULL,PennController,11,_Trial_,Start,1.63399E+12,D,single,Filler-Shape-triangle,NULL
1633994930,5ab45ca0d6e1938e5afea5031a0e8bb4,11,0,experiment,NULL,SelectionGrid,test-phase,Selections,triangle-3.jpg;triangle-2.jpg;triangle-4.jpg;triangle-1.jpg;triangle-5.jpg|triangle-3.jpg;true;1946:triangle-2.jpg;true;2451:triangle-4.jpg;true;2944:triangle-1.jpg;true;3437:triangle-5.jpg;true;4314,1.63399E+12,D,single,Filler-Shape-triangle,NULL
1633994930,5ab45ca0d6e1938e5afea5031a0e8bb4,11,0,experiment,NULL,PennController,11,_Trial_,End,1.63399E+12,D,single,Filler-Shape-triangle,NULL
1633994930,5ab45ca0d6e1938e5afea5031a0e8bb4,12,0,experiment,NULL,PennController,12,_Trial_,Start,1.63399E+12,D,single,vegetable,NULL
1633994930,5ab45ca0d6e1938e5afea5031a0e8bb4,12,0,experiment,NULL,SelectionGrid,test-phase,Selections,sub-green_pepper-1.jpg;sub-green_pepper-2.jpg;basic-pepper-2.jpg;basic-pepper-3.jpg;contrast-red_pepper-2.jpg|sub-green_pepper-1.jpg;true;3019:sub-green_pepper-2.jpg;true;3646:basic-pepper-2.jpg;true;4525:basic-pepper-3.jpg;true;5274:basic-pepper-3.jpg;false;6024:basic-pepper-2.jpg;false;6620:basic-pepper-2.jpg;true;7611:basic-pepper-3.jpg;true;8233:contrast-red_pepper-2.jpg;true;8884,1.63399E+12,D,single,vegetable,NULL
1633994930,5ab45ca0d6e1938e5afea5031a0e8bb4,12,0,experiment,NULL,PennController,12,_Trial_,End,1.63399E+12,D,single,vegetable,NULL
1633994930,5ab45ca0d6e1938e5afea5031a0e8bb4,13,0,experiment,NULL,PennController,13,_Trial_,Start,1.63399E+12,D,single,vehicle,NULL
1633994930,5ab45ca0d6e1938e5afea5031a0e8bb4,13,0,experiment,NULL,SelectionGrid,test-phase,Selections,sub-racecar-2.jpg;sub-racecar-1.jpg|sub-racecar-2.jpg;true;2324:sub-racecar-1.jpg;true;3121,1.63399E+12,D,single,vehicle,NULL
1633994930,5ab45ca0d6e1938e5afea5031a0e8bb4,13,0,experiment,NULL,PennController,13,_Trial_,End,1.63399E+12,D,single,vehicle,NULL
# 13. window_size.,,,,,,,,,,,,,,
# 14. Comments.,,,,,,,,,,,,,,
1633994930,5ab45ca0d6e1938e5afea5031a0e8bb4,14,0,end,NULL,PennController,2,_Trial_,Start,1.63399E+12,1440x766,NULL,,
1633994930,5ab45ca0d6e1938e5afea5031a0e8bb4,14,0,end,NULL,PennController,2,_Trial_,End,1.63399E+12,1440x766,NULL,,
#,,,,,,,,,,,,,,
# Results on Mon, 11 Oct 2021 23:48:52 GMT,,,,,,,,,,,,,
# USER AGENT: Mozilla/5.0 (Macintosh; Intel Mac OS X 10_15_7) AppleWebKit/537.36 (KHTML, like Gecko) Chrome/92.0.4515.159 Safari/537.36,,,,,,,,,,,,,
# Design number was non-random = 16,,,,,,,,,,,,,,
#,,,,,,,,,,,,,,
# Columns below this comment are as follows:,,,,,,,,,,,,,,
# 1. Results reception time.,,,,,,,,,,,,,,
# 2. MD5 hash of participant's IP address.,,,,,,,,,,,,,,
# 3. Controller name.,,,,,,,,,,,,,,
# 4. Order number of item.,,,,,,,,,,,,,,
# 5. Inner element number.,,,,,,,,,,,,,,
# 6. Label.,,,,,,,,,,,,,,
# 7. Latin Square Group.,,,,,,,,,,,,,,
# 8. PennElementType.,,,,,,,,,,,,,,
# 9. PennElementName.,,,,,,,,,,,,,,
# 10. Parameter.,,,,,,,,,,,,,,
# 11. Value.,,,,,,,,,,,,,,
# 12. EventTime.,,,,,,,,,,,,,,
# 13. ID.,,,,,,,,,,,,,,
# 14. Comments.,,,,,,,,,,,,,,
1633996132,b1c1994160b2cb0dd33663c00cb78cad,2,0,intro,NULL,PennController,0,_Trial_,Start,1.634E+12,7469,NULL,,
1633996132,b1c1994160b2cb0dd33663c00cb78cad,2,0,intro,NULL,PennController,0,_Trial_,End,1.634E+12,7469,NULL,,
# 13. Comments.,,,,,,,,,,,,,,
1633996132,b1c1994160b2cb0dd33663c00cb78cad,3,0,beginning,NULL,PennController,1,_Trial_,Start,1.634E+12,NULL,,,
1633996132,b1c1994160b2cb0dd33663c00cb78cad,3,0,beginning,NULL,PennController,1,_Trial_,End,1.634E+12,NULL,,,
# 13. group.,,,,,,,,,,,,,,
# 14. condition.,,,,,,,,,,,,,,
# 15. item.,,,,,,,,,,,,,,
# 16. Comments.,,,,,,,,,,,,,,
1633996132,b1c1994160b2cb0dd33663c00cb78cad,4,0,experiment,NULL,PennController,4,_Trial_,Start,1.634E+12,A,single,animal,NULL
1633996132,b1c1994160b2cb0dd33663c00cb78cad,4,0,experiment,NULL,SelectionGrid,test-phase,Selections,basic-dog-2.jpg;contrast-corgi-2.jpg;contrast-corgi-1.jpg;basic-dog-3.jpg;sub-dalmatian-1.jpg;basic-dog-1.jpg;sub-dalmatian-2.jpg|basic-dog-2.jpg;true;4794:contrast-corgi-2.jpg;true;5508:contrast-corgi-1.jpg;true;6241:basic-dog-3.jpg;true;8049:sub-dalmatian-1.jpg;true;9116:basic-dog-1.jpg;true;9967:sub-dalmatian-2.jpg;true;11011,1.634E+12,A,single,animal,NULL
1633996132,b1c1994160b2cb0dd33663c00cb78cad,4,0,experiment,NULL,PennController,4,_Trial_,End,1.634E+12,A,single,animal,NULL
1633996132,b1c1994160b2cb0dd33663c00cb78cad,5,0,experiment,NULL,PennController,5,_Trial_,Start,1.634E+12,A,contrast,beast,NULL
1633996132,b1c1994160b2cb0dd33663c00cb78cad,5,0,experiment,NULL,SelectionGrid,test-phase,Selections,sub-trex-2.jpg;sub-trex-1.jpg|sub-trex-2.jpg;true;2590:sub-trex-1.jpg;true;6021,1.634E+12,A,contrast,beast,NULL
1633996132,b1c1994160b2cb0dd33663c00cb78cad,5,0,experiment,NULL,PennController,5,_Trial_,End,1.634E+12,A,contrast,beast,NULL
1633996132,b1c1994160b2cb0dd33663c00cb78cad,6,0,experiment,NULL,PennController,6,_Trial_,Start,1.634E+12,A,single,electronics,NULL
1633996132,b1c1994160b2cb0dd33663c00cb78cad,6,0,experiment,NULL,SelectionGrid,test-phase,Selections,sub-smart_phone-2.jpg;contrast-flip_phone-1.jpg;contrast-flip_phone-2.jpg;sub-smart_phone-1.jpg|sub-smart_phone-2.jpg;true;2941:contrast-flip_phone-1.jpg;true;5481:contrast-flip_phone-2.jpg;true;6508:basic-phone-3.jpg;true;8395:sub-smart_phone-1.jpg;true;9128:basic-phone-3.jpg;false;11549,1.634E+12,A,single,electronics,NULL
1633996132,b1c1994160b2cb0dd33663c00cb78cad,6,0,experiment,NULL,PennController,6,_Trial_,End,1.634E+12,A,single,electronics,NULL
1633996132,b1c1994160b2cb0dd33663c00cb78cad,7,0,experiment,NULL,PennController,7,_Trial_,Start,1.634E+12,A,single,Filler-Color-red,NULL
1633996132,b1c1994160b2cb0dd33663c00cb78cad,7,0,experiment,NULL,SelectionGrid,test-phase,Selections,red-rect.jpg|red-rect.jpg;true;1767:red-rect.jpg;true;2244:red-rect.jpg;true;2834:red-rect.jpg;true;3670:red-rect.jpg;true;4307:red-rect.jpg;true;5230,1.634E+12,A,single,Filler-Color-red,NULL
1633996132,b1c1994160b2cb0dd33663c00cb78cad,7,0,experiment,NULL,PennController,7,_Trial_,End,1.634E+12,A,single,Filler-Color-red,NULL
1633996132,b1c1994160b2cb0dd33663c00cb78cad,8,0,experiment,NULL,PennController,8,_Trial_,Start,1.634E+12,A,contrast,fruit,NULL
1633996132,b1c1994160b2cb0dd33663c00cb78cad,8,0,experiment,NULL,SelectionGrid,test-phase,Selections,contrast-green_apple-2.jpg;basic-apple-2.jpg;contrast-green_apple-1.jpg;basic-apple-1.jpg|contrast-green_apple-2.jpg;true;4426:basic-apple-2.jpg;true;5374:contrast-green_apple-1.jpg;true;6193:basic-apple-1.jpg;true;9569,1.634E+12,A,contrast,fruit,NULL
1633996132,b1c1994160b2cb0dd33663c00cb78cad,8,0,experiment,NULL,PennController,8,_Trial_,End,1.634E+12,A,contrast,fruit,NULL
1633996132,b1c1994160b2cb0dd33663c00cb78cad,9,0,experiment,NULL,PennController,9,_Trial_,Start,1.634E+12,A,single,furniture,NULL
1633996132,b1c1994160b2cb0dd33663c00cb78cad,9,0,experiment,NULL,SelectionGrid,test-phase,Selections,sub-wooden_chair-2.jpg;basic-chair-3.jpg;contrast-office_chair-1.jpg;contrast-office_chair-2.jpg;sub-wooden_chair-1.jpg;basic-chair-2.jpg;basic-chair-1.jpg|sub-wooden_chair-2.jpg;true;2366:basic-chair-3.jpg;true;3560:contrast-office_chair-1.jpg;true;4246:contrast-office_chair-2.jpg;true;5695:sub-wooden_chair-1.jpg;true;6458:basic-chair-2.jpg;true;7375:basic-chair-1.jpg;true;8123,1.634E+12,A,single,furniture,NULL
1633996132,b1c1994160b2cb0dd33663c00cb78cad,9,0,experiment,NULL,PennController,9,_Trial_,End,1.634E+12,A,single,furniture,NULL
1633996132,b1c1994160b2cb0dd33663c00cb78cad,10,0,experiment,NULL,PennController,10,_Trial_,Start,1.634E+12,A,contrast,light,NULL
1633996132,b1c1994160b2cb0dd33663c00cb78cad,10,0,experiment,NULL,SelectionGrid,test-phase,Selections,sub-gooseneck_lamp-2.jpg;sub-gooseneck_lamp-1.jpg|sub-gooseneck_lamp-2.jpg;true;3093:sub-gooseneck_lamp-1.jpg;true;4216,1.634E+12,A,contrast,light,NULL
1633996132,b1c1994160b2cb0dd33663c00cb78cad,10,0,experiment,NULL,PennController,10,_Trial_,End,1.634E+12,A,contrast,light,NULL
1633996132,b1c1994160b2cb0dd33663c00cb78cad,11,0,experiment,NULL,PennController,11,_Trial_,Start,1.634E+12,A,single,Filler-Shape-triangle,NULL
1633996132,b1c1994160b2cb0dd33663c00cb78cad,11,0,experiment,NULL,SelectionGrid,test-phase,Selections,triangle-5.jpg;triangle-3.jpg;triangle-2.jpg;triangle-4.jpg;triangle-1.jpg|triangle-5.jpg;true;2251:triangle-3.jpg;true;2681:triangle-2.jpg;true;3199:triangle-4.jpg;true;3820:triangle-1.jpg;true;4385,1.634E+12,A,single,Filler-Shape-triangle,NULL
1633996132,b1c1994160b2cb0dd33663c00cb78cad,11,0,experiment,NULL,PennController,11,_Trial_,End,1.634E+12,A,single,Filler-Shape-triangle,NULL
1633996132,b1c1994160b2cb0dd33663c00cb78cad,12,0,experiment,NULL,PennController,12,_Trial_,Start,1.634E+12,A,single,vegetable,NULL
1633996132,b1c1994160b2cb0dd33663c00cb78cad,12,0,experiment,NULL,SelectionGrid,test-phase,Selections,sub-green_pepper-1.jpg;basic-pepper-1.jpg;basic-pepper-3.jpg;basic-pepper-2.jpg;sub-green_pepper-2.jpg;contrast-red_pepper-2.jpg;contrast-red_pepper-1.jpg|sub-green_pepper-1.jpg;true;2178:basic-pepper-1.jpg;true;2719:basic-pepper-3.jpg;true;3229:basic-pepper-2.jpg;true;3993:sub-green_pepper-2.jpg;true;4566:contrast-red_pepper-2.jpg;true;5243:contrast-red_pepper-1.jpg;true;8691,1.634E+12,A,single,vegetable,NULL
1633996132,b1c1994160b2cb0dd33663c00cb78cad,12,0,experiment,NULL,PennController,12,_Trial_,End,1.634E+12,A,single,vegetable,NULL
1633996132,b1c1994160b2cb0dd33663c00cb78cad,13,0,experiment,NULL,PennController,13,_Trial_,Start,1.634E+12,A,contrast,vehicle,NULL
1633996132,b1c1994160b2cb0dd33663c00cb78cad,13,0,experiment,NULL,SelectionGrid,test-phase,Selections,sub-racecar-2.jpg;basic-car-1.jpg;basic-car-2.jpg;sub-racecar-1.jpg;basic-car-3.jpg|sub-racecar-2.jpg;true;3242:basic-car-1.jpg;true;4644:basic-car-2.jpg;true;5560:sub-racecar-1.jpg;true;7399:basic-car-3.jpg;true;8307,1.634E+12,A,contrast,vehicle,NULL
1633996132,b1c1994160b2cb0dd33663c00cb78cad,13,0,experiment,NULL,PennController,13,_Trial_,End,1.634E+12,A,contrast,vehicle,NULL
# 13. window_size.,,,,,,,,,,,,,,
# 14. Comments.,,,,,,,,,,,,,,
1633996132,b1c1994160b2cb0dd33663c00cb78cad,14,0,end,NULL,PennController,2,_Trial_,Start,1.634E+12,1296x727,NULL,,
1633996132,b1c1994160b2cb0dd33663c00cb78cad,14,0,end,NULL,PennController,2,_Trial_,End,1.634E+12,1296x727,NULL,,
#,,,,,,,,,,,,,,
# Results on Tue, 12 Oct 2021 00:32:28 GMT,,,,,,,,,,,,,
# USER AGENT: Mozilla/5.0 (Macintosh; Intel Mac OS X 10_15_7) AppleWebKit/537.36 (KHTML, like Gecko) Chrome/94.0.4606.71 Safari/537.36,,,,,,,,,,,,,
# Design number was non-random = 17,,,,,,,,,,,,,,
#,,,,,,,,,,,,,,
# Columns below this comment are as follows:,,,,,,,,,,,,,,
# 1. Results reception time.,,,,,,,,,,,,,,
# 2. MD5 hash of participant's IP address.,,,,,,,,,,,,,,
# 3. Controller name.,,,,,,,,,,,,,,
# 4. Order number of item.,,,,,,,,,,,,,,
# 5. Inner element number.,,,,,,,,,,,,,,
# 6. Label.,,,,,,,,,,,,,,
# 7. Latin Square Group.,,,,,,,,,,,,,,
# 8. PennElementType.,,,,,,,,,,,,,,
# 9. PennElementName.,,,,,,,,,,,,,,
# 10. Parameter.,,,,,,,,,,,,,,
# 11. Value.,,,,,,,,,,,,,,
# 12. EventTime.,,,,,,,,,,,,,,
# 13. ID.,,,,,,,,,,,,,,
# 14. Comments.,,,,,,,,,,,,,,
1633998748,33e9b6e30588abb3e2f4491fdc571e8c,2,0,intro,NULL,PennController,0,_Trial_,Start,1.634E+12,9695,NULL,,
1633998748,33e9b6e30588abb3e2f4491fdc571e8c,2,0,intro,NULL,PennController,0,_Trial_,End,1.634E+12,9695,NULL,,
# 13. Comments.,,,,,,,,,,,,,,
1633998748,33e9b6e30588abb3e2f4491fdc571e8c,3,0,beginning,NULL,PennController,1,_Trial_,Start,1.634E+12,NULL,,,
1633998748,33e9b6e30588abb3e2f4491fdc571e8c,3,0,beginning,NULL,PennController,1,_Trial_,End,1.634E+12,NULL,,,
# 13. group.,,,,,,,,,,,,,,
# 14. condition.,,,,,,,,,,,,,,
# 15. item.,,,,,,,,,,,,,,
# 16. Comments.,,,,,,,,,,,,,,
1633998748,33e9b6e30588abb3e2f4491fdc571e8c,4,0,experiment,NULL,PennController,4,_Trial_,Start,1.634E+12,B,contrast,animal,NULL
1633998748,33e9b6e30588abb3e2f4491fdc571e8c,4,0,experiment,NULL,SelectionGrid,test-phase,Selections,contrast-corgi-2.jpg;sub-dalmatian-2.jpg|contrast-corgi-2.jpg;true;2152:sub-dalmatian-2.jpg;true;4759,1.634E+12,B,contrast,animal,NULL
1633998748,33e9b6e30588abb3e2f4491fdc571e8c,4,0,experiment,NULL,PennController,4,_Trial_,End,1.634E+12,B,contrast,animal,NULL
1633998748,33e9b6e30588abb3e2f4491fdc571e8c,5,0,experiment,NULL,PennController,5,_Trial_,Start,1.634E+12,B,single,beast,NULL
1633998748,33e9b6e30588abb3e2f4491fdc571e8c,5,0,experiment,NULL,SelectionGrid,test-phase,Selections,basic-dinosaur-3.jpg;contrast-triceratops-1.jpg;basic-dinosaur-1.jpg;basic-dinosaur-2.jpg;sub-trex-1.jpg;sub-trex-2.jpg;contrast-triceratops-2.jpg|basic-dinosaur-3.jpg;true;10417:contrast-triceratops-1.jpg;true;10947:basic-dinosaur-1.jpg;true;11397:basic-dinosaur-2.jpg;true;11879:sub-trex-1.jpg;true;12369:sub-trex-2.jpg;true;13531:contrast-triceratops-2.jpg;true;14651,1.634E+12,B,single,beast,NULL
1633998748,33e9b6e30588abb3e2f4491fdc571e8c,5,0,experiment,NULL,PennController,5,_Trial_,End,1.634E+12,B,single,beast,NULL
1633998748,33e9b6e30588abb3e2f4491fdc571e8c,6,0,experiment,NULL,PennController,6,_Trial_,Start,1.634E+12,B,contrast,electronics,NULL
1633998748,33e9b6e30588abb3e2f4491fdc571e8c,6,0,experiment,NULL,SelectionGrid,test-phase,Selections,contrast-flip_phone-1.jpg;sub-smart_phone-2.jpg;contrast-flip_phone-2.jpg;sub-smart_phone-1.jpg|contrast-flip_phone-1.jpg;true;2864:sub-smart_phone-2.jpg;true;3919:contrast-flip_phone-2.jpg;true;4818:sub-smart_phone-1.jpg;true;5677,1.634E+12,B,contrast,electronics,NULL
1633998748,33e9b6e30588abb3e2f4491fdc571e8c,6,0,experiment,NULL,PennController,6,_Trial_,End,1.634E+12,B,contrast,electronics,NULL
1633998748,33e9b6e30588abb3e2f4491fdc571e8c,7,0,experiment,NULL,PennController,7,_Trial_,Start,1.634E+12,B,single,Filler-Color-red,NULL
1633998748,33e9b6e30588abb3e2f4491fdc571e8c,7,0,experiment,NULL,SelectionGrid,test-phase,Selections,red-rect.jpg|red-rect.jpg;true;1295:red-rect.jpg;true;1769:red-rect.jpg;true;2219:red-rect.jpg;true;2873:red-rect.jpg;true;3445:red-rect.jpg;true;3846,1.634E+12,B,single,Filler-Color-red,NULL
1633998748,33e9b6e30588abb3e2f4491fdc571e8c,7,0,experiment,NULL,PennController,7,_Trial_,End,1.634E+12,B,single,Filler-Color-red,NULL
1633998748,33e9b6e30588abb3e2f4491fdc571e8c,8,0,experiment,NULL,PennController,8,_Trial_,Start,1.634E+12,B,single,fruit,NULL
1633998748,33e9b6e30588abb3e2f4491fdc571e8c,8,0,experiment,NULL,SelectionGrid,test-phase,Selections,sub-red_apple-2.jpg;sub-red_apple-1.jpg;basic-apple-1.jpg;contrast-green_apple-1.jpg;basic-apple-2.jpg;contrast-green_apple-2.jpg|sub-red_apple-2.jpg;true;1947:sub-red_apple-1.jpg;true;3035:basic-apple-1.jpg;true;4965:contrast-green_apple-1.jpg;true;5636:basic-apple-2.jpg;true;6961:contrast-green_apple-2.jpg;true;7517,1.634E+12,B,single,fruit,NULL
1633998748,33e9b6e30588abb3e2f4491fdc571e8c,8,0,experiment,NULL,PennController,8,_Trial_,End,1.634E+12,B,single,fruit,NULL
1633998748,33e9b6e30588abb3e2f4491fdc571e8c,9,0,experiment,NULL,PennController,9,_Trial_,Start,1.634E+12,B,contrast,furniture,NULL
1633998748,33e9b6e30588abb3e2f4491fdc571e8c,9,0,experiment,NULL,SelectionGrid,test-phase,Selections,sub-wooden_chair-2.jpg;contrast-office_chair-1.jpg;sub-wooden_chair-1.jpg;contrast-office_chair-2.jpg|sub-wooden_chair-2.jpg;true;1611:contrast-office_chair-1.jpg;true;2429:basic-chair-3.jpg;true;3582:sub-wooden_chair-1.jpg;true;4474:contrast-office_chair-2.jpg;true;5054:basic-chair-3.jpg;false;8956,1.634E+12,B,contrast,furniture,NULL
1633998748,33e9b6e30588abb3e2f4491fdc571e8c,9,0,experiment,NULL,PennController,9,_Trial_,End,1.634E+12,B,contrast,furniture,NULL
1633998748,33e9b6e30588abb3e2f4491fdc571e8c,10,0,experiment,NULL,PennController,10,_Trial_,Start,1.634E+12,B,single,light,NULL
1633998748,33e9b6e30588abb3e2f4491fdc571e8c,10,0,experiment,NULL,SelectionGrid,test-phase,Selections,contrast-desk_lamp-2.jpg;sub-gooseneck_lamp-1.jpg;contrast-desk_lamp-1.jpg;sub-gooseneck_lamp-2.jpg|basic-lamp-1.jpg;true;5488:contrast-desk_lamp-2.jpg;true;6453:basic-lamp-1.jpg;false;7059:sub-gooseneck_lamp-1.jpg;true;7999:contrast-desk_lamp-1.jpg;true;8432:sub-gooseneck_lamp-2.jpg;true;9079,1.634E+12,B,single,light,NULL
1633998748,33e9b6e30588abb3e2f4491fdc571e8c,10,0,experiment,NULL,PennController,10,_Trial_,End,1.634E+12,B,single,light,NULL
1633998748,33e9b6e30588abb3e2f4491fdc571e8c,11,0,experiment,NULL,PennController,11,_Trial_,Start,1.634E+12,B,single,Filler-Shape-triangle,NULL
1633998748,33e9b6e30588abb3e2f4491fdc571e8c,11,0,experiment,NULL,SelectionGrid,test-phase,Selections,triangle-3.jpg;triangle-5.jpg;triangle-2.jpg;triangle-4.jpg;triangle-1.jpg|triangle-3.jpg;true;1245:triangle-5.jpg;true;1686:triangle-2.jpg;true;2160:triangle-4.jpg;true;2618:triangle-1.jpg;true;3085,1.634E+12,B,single,Filler-Shape-triangle,NULL
1633998748,33e9b6e30588abb3e2f4491fdc571e8c,11,0,experiment,NULL,PennController,11,_Trial_,End,1.634E+12,B,single,Filler-Shape-triangle,NULL
1633998748,33e9b6e30588abb3e2f4491fdc571e8c,12,0,experiment,NULL,PennController,12,_Trial_,Start,1.634E+12,B,contrast,vegetable,NULL
1633998748,33e9b6e30588abb3e2f4491fdc571e8c,12,0,experiment,NULL,SelectionGrid,test-phase,Selections,sub-green_pepper-1.jpg;contrast-red_pepper-2.jpg;basic-pepper-1.jpg;contrast-red_pepper-1.jpg;sub-green_pepper-2.jpg;basic-pepper-3.jpg;basic-pepper-2.jpg|sub-green_pepper-1.jpg;true;1471:contrast-red_pepper-2.jpg;true;2126:basic-pepper-1.jpg;true;2535:contrast-red_pepper-1.jpg;true;2968:sub-green_pepper-2.jpg;true;3550:basic-pepper-3.jpg;true;4089:basic-pepper-2.jpg;true;4743,1.634E+12,B,contrast,vegetable,NULL
1633998748,33e9b6e30588abb3e2f4491fdc571e8c,12,0,experiment,NULL,PennController,12,_Trial_,End,1.634E+12,B,contrast,vegetable,NULL
1633998748,33e9b6e30588abb3e2f4491fdc571e8c,13,0,experiment,NULL,PennController,13,_Trial_,Start,1.634E+12,B,single,vehicle,NULL
1633998748,33e9b6e30588abb3e2f4491fdc571e8c,13,0,experiment,NULL,SelectionGrid,test-phase,Selections,sub-racecar-2.jpg;sub-racecar-1.jpg|sub-racecar-2.jpg;true;2065:sub-racecar-1.jpg;true;3685,1.634E+12,B,single,vehicle,NULL
1633998748,33e9b6e30588abb3e2f4491fdc571e8c,13,0,experiment,NULL,PennController,13,_Trial_,End,1.634E+12,B,single,vehicle,NULL
# 13. window_size.,,,,,,,,,,,,,,
# 14. Comments.,,,,,,,,,,,,,,
1633998748,33e9b6e30588abb3e2f4491fdc571e8c,14,0,end,NULL,PennController,2,_Trial_,Start,1.634E+12,1279x734,NULL,,
1633998748,33e9b6e30588abb3e2f4491fdc571e8c,14,0,end,NULL,PennController,2,_Trial_,End,1.634E+12,1279x734,NULL,,
#,,,,,,,,,,,,,,
# Results on Tue, 12 Oct 2021 00:46:11 GMT,,,,,,,,,,,,,
# USER AGENT: Mozilla/5.0 (Macintosh; Intel Mac OS X 10_15_7) AppleWebKit/605.1.15 (KHTML, like Gecko) Version/14.1.2 Safari/605.1.15,,,,,,,,,,,,,
# Design number was non-random = 18,,,,,,,,,,,,,,
#,,,,,,,,,,,,,,
# Columns below this comment are as follows:,,,,,,,,,,,,,,
# 1. Results reception time.,,,,,,,,,,,,,,
# 2. MD5 hash of participant's IP address.,,,,,,,,,,,,,,
# 3. Controller name.,,,,,,,,,,,,,,
# 4. Order number of item.,,,,,,,,,,,,,,
# 5. Inner element number.,,,,,,,,,,,,,,
# 6. Label.,,,,,,,,,,,,,,
# 7. Latin Square Group.,,,,,,,,,,,,,,
# 8. PennElementType.,,,,,,,,,,,,,,
# 9. PennElementName.,,,,,,,,,,,,,,
# 10. Parameter.,,,,,,,,,,,,,,
# 11. Value.,,,,,,,,,,,,,,
# 12. EventTime.,,,,,,,,,,,,,,
# 13. ID.,,,,,,,,,,,,,,
# 14. Comments.,,,,,,,,,,,,,,
1633999571,bfe4b7cc17e52de65731f6f1973d1695,2,0,intro,NULL,PennController,0,_Trial_,Start,1.634E+12,9567,NULL,,
1633999571,bfe4b7cc17e52de65731f6f1973d1695,2,0,intro,NULL,PennController,0,_Trial_,End,1.634E+12,9567,NULL,,
# 13. Comments.,,,,,,,,,,,,,,
1633999571,bfe4b7cc17e52de65731f6f1973d1695,3,0,beginning,NULL,PennController,1,_Trial_,Start,1.634E+12,NULL,,,
1633999571,bfe4b7cc17e52de65731f6f1973d1695,3,0,beginning,NULL,PennController,1,_Trial_,End,1.634E+12,NULL,,,
# 13. group.,,,,,,,,,,,,,,
# 14. condition.,,,,,,,,,,,,,,
# 15. item.,,,,,,,,,,,,,,
# 16. Comments.,,,,,,,,,,,,,,
1633999571,bfe4b7cc17e52de65731f6f1973d1695,4,0,experiment,NULL,PennController,4,_Trial_,Start,1.634E+12,C,single,animal,NULL
1633999571,bfe4b7cc17e52de65731f6f1973d1695,4,0,experiment,NULL,SelectionGrid,test-phase,Selections,sub-dalmatian-1.jpg;sub-dalmatian-2.jpg;contrast-corgi-2.jpg;contrast-corgi-1.jpg;basic-dog-2.jpg;basic-dog-3.jpg|sub-dalmatian-1.jpg;true;3720:sub-dalmatian-2.jpg;true;4651:contrast-corgi-2.jpg;true;6055:contrast-corgi-1.jpg;true;6703:basic-dog-2.jpg;true;8779:basic-dog-3.jpg;true;9650,1.634E+12,C,single,animal,NULL
1633999571,bfe4b7cc17e52de65731f6f1973d1695,4,0,experiment,NULL,PennController,4,_Trial_,End,1.634E+12,C,single,animal,NULL
1633999571,bfe4b7cc17e52de65731f6f1973d1695,5,0,experiment,NULL,PennController,5,_Trial_,Start,1.634E+12,C,single,beast,NULL
1633999571,bfe4b7cc17e52de65731f6f1973d1695,5,0,experiment,NULL,SelectionGrid,test-phase,Selections,contrast-triceratops-1.jpg;basic-dinosaur-3.jpg;contrast-triceratops-2.jpg;sub-trex-2.jpg;sub-trex-1.jpg;basic-dinosaur-1.jpg|contrast-triceratops-1.jpg;true;1363:basic-dinosaur-3.jpg;true;2047:sup-beast-1.jpg;true;2885:sup-beast-1.jpg;false;3829:contrast-triceratops-2.jpg;true;4377:sub-trex-2.jpg;true;5669:sub-trex-1.jpg;true;6514:basic-dinosaur-1.jpg;true;7355,1.634E+12,C,single,beast,NULL
1633999571,bfe4b7cc17e52de65731f6f1973d1695,5,0,experiment,NULL,PennController,5,_Trial_,End,1.634E+12,C,single,beast,NULL
1633999571,bfe4b7cc17e52de65731f6f1973d1695,6,0,experiment,NULL,PennController,6,_Trial_,Start,1.634E+12,C,contrast,electronics,NULL
1633999571,bfe4b7cc17e52de65731f6f1973d1695,6,0,experiment,NULL,SelectionGrid,test-phase,Selections,sub-smart_phone-2.jpg;sub-smart_phone-1.jpg|sub-smart_phone-2.jpg;true;3740:sub-smart_phone-1.jpg;true;4484,1.634E+12,C,contrast,electronics,NULL
1633999571,bfe4b7cc17e52de65731f6f1973d1695,6,0,experiment,NULL,PennController,6,_Trial_,End,1.634E+12,C,contrast,electronics,NULL
1633999571,bfe4b7cc17e52de65731f6f1973d1695,7,0,experiment,NULL,PennController,7,_Trial_,Start,1.634E+12,C,single,Filler-Color-red,NULL
1633999571,bfe4b7cc17e52de65731f6f1973d1695,7,0,experiment,NULL,SelectionGrid,test-phase,Selections,red-rect.jpg|red-rect.jpg;true;2510:red-rect.jpg;true;3017:red-rect.jpg;true;3803:red-rect.jpg;true;4523:red-rect.jpg;true;4923:red-rect.jpg;true;5530,1.634E+12,C,single,Filler-Color-red,NULL
1633999571,bfe4b7cc17e52de65731f6f1973d1695,7,0,experiment,NULL,PennController,7,_Trial_,End,1.634E+12,C,single,Filler-Color-red,NULL
1633999571,bfe4b7cc17e52de65731f6f1973d1695,8,0,experiment,NULL,PennController,8,_Trial_,Start,1.634E+12,C,contrast,fruit,NULL
1633999571,bfe4b7cc17e52de65731f6f1973d1695,8,0,experiment,NULL,SelectionGrid,test-phase,Selections,sub-red_apple-1.jpg;sub-red_apple-2.jpg|sub-red_apple-1.jpg;true;4243:sub-red_apple-2.jpg;true;5359,1.634E+12,C,contrast,fruit,NULL
1633999571,bfe4b7cc17e52de65731f6f1973d1695,8,0,experiment,NULL,PennController,8,_Trial_,End,1.634E+12,C,contrast,fruit,NULL
1633999571,bfe4b7cc17e52de65731f6f1973d1695,9,0,experiment,NULL,PennController,9,_Trial_,Start,1.634E+12,C,single,furniture,NULL
1633999571,bfe4b7cc17e52de65731f6f1973d1695,9,0,experiment,NULL,SelectionGrid,test-phase,Selections,sub-wooden_chair-1.jpg;contrast-office_chair-2.jpg;sub-wooden_chair-2.jpg;basic-chair-3.jpg;basic-chair-1.jpg|sub-wooden_chair-1.jpg;true;2225:contrast-office_chair-2.jpg;true;2777:sub-wooden_chair-2.jpg;true;3544:basic-chair-3.jpg;true;4739:basic-chair-1.jpg;true;7448,1.634E+12,C,single,furniture,NULL
1633999571,bfe4b7cc17e52de65731f6f1973d1695,9,0,experiment,NULL,PennController,9,_Trial_,End,1.634E+12,C,single,furniture,NULL
1633999571,bfe4b7cc17e52de65731f6f1973d1695,10,0,experiment,NULL,PennController,10,_Trial_,Start,1.634E+12,C,single,light,NULL
1633999571,bfe4b7cc17e52de65731f6f1973d1695,10,0,experiment,NULL,SelectionGrid,test-phase,Selections,sub-gooseneck_lamp-2.jpg;sub-gooseneck_lamp-1.jpg;sup-light-1.jpg;basic-lamp-3.jpg;contrast-desk_lamp-2.jpg;basic-lamp-1.jpg;sup-light-2.jpg|sub-gooseneck_lamp-2.jpg;true;7300:sub-gooseneck_lamp-1.jpg;true;8118:sup-light-1.jpg;true;9142:basic-lamp-3.jpg;true;9531:contrast-desk_lamp-2.jpg;true;10199:basic-lamp-1.jpg;true;12612:sup-light-2.jpg;true;13679,1.634E+12,C,single,light,NULL
1633999571,bfe4b7cc17e52de65731f6f1973d1695,10,0,experiment,NULL,PennController,10,_Trial_,End,1.634E+12,C,single,light,NULL
1633999571,bfe4b7cc17e52de65731f6f1973d1695,11,0,experiment,NULL,PennController,11,_Trial_,Start,1.634E+12,C,single,Filler-Shape-triangle,NULL
1633999571,bfe4b7cc17e52de65731f6f1973d1695,11,0,experiment,NULL,SelectionGrid,test-phase,Selections,triangle-5.jpg;triangle-3.jpg;triangle-2.jpg;triangle-4.jpg;triangle-1.jpg|triangle-5.jpg;true;1964:triangle-3.jpg;true;2380:triangle-2.jpg;true;2781:triangle-4.jpg;true;3199:triangle-1.jpg;true;3776,1.634E+12,C,single,Filler-Shape-triangle,NULL
1633999571,bfe4b7cc17e52de65731f6f1973d1695,11,0,experiment,NULL,PennController,11,_Trial_,End,1.634E+12,C,single,Filler-Shape-triangle,NULL
1633999571,bfe4b7cc17e52de65731f6f1973d1695,12,0,experiment,NULL,PennController,12,_Trial_,Start,1.634E+12,C,contrast,vegetable,NULL
1633999571,bfe4b7cc17e52de65731f6f1973d1695,12,0,experiment,NULL,SelectionGrid,test-phase,Selections,sub-green_pepper-2.jpg;sub-green_pepper-1.jpg|sub-green_pepper-2.jpg;true;2788:sub-green_pepper-1.jpg;true;3546,1.634E+12,C,contrast,vegetable,NULL
1633999571,bfe4b7cc17e52de65731f6f1973d1695,12,0,experiment,NULL,PennController,12,_Trial_,End,1.634E+12,C,contrast,vegetable,NULL
1633999571,bfe4b7cc17e52de65731f6f1973d1695,13,0,experiment,NULL,PennController,13,_Trial_,Start,1.634E+12,C,contrast,vehicle,NULL
1633999571,bfe4b7cc17e52de65731f6f1973d1695,13,0,experiment,NULL,SelectionGrid,test-phase,Selections,contrast-van-2.jpg;basic-car-1.jpg;contrast-van-1.jpg|contrast-van-2.jpg;true;4533:basic-car-1.jpg;true;5253:contrast-van-1.jpg;true;6343,1.634E+12,C,contrast,vehicle,NULL
1633999571,bfe4b7cc17e52de65731f6f1973d1695,13,0,experiment,NULL,PennController,13,_Trial_,End,1.634E+12,C,contrast,vehicle,NULL
# 13. window_size.,,,,,,,,,,,,,,
# 14. Comments.,,,,,,,,,,,,,,
1633999571,bfe4b7cc17e52de65731f6f1973d1695,14,0,end,NULL,PennController,2,_Trial_,Start,1.634E+12,1409x767,NULL,,
1633999571,bfe4b7cc17e52de65731f6f1973d1695,14,0,end,NULL,PennController,2,_Trial_,End,1.634E+12,1409x767,NULL,,
#,,,,,,,,,,,,,,
# Results on Tue, 12 Oct 2021 00:49:41 GMT,,,,,,,,,,,,,
# USER AGENT: Mozilla/5.0 (Macintosh; Intel Mac OS X 10_15_7) AppleWebKit/537.36 (KHTML, like Gecko) Chrome/94.0.4606.61 Safari/537.36,,,,,,,,,,,,,
# Design number was non-random = 19,,,,,,,,,,,,,,
#,,,,,,,,,,,,,,
# Columns below this comment are as follows:,,,,,,,,,,,,,,
# 1. Results reception time.,,,,,,,,,,,,,,
# 2. MD5 hash of participant's IP address.,,,,,,,,,,,,,,
# 3. Controller name.,,,,,,,,,,,,,,
# 4. Order number of item.,,,,,,,,,,,,,,
# 5. Inner element number.,,,,,,,,,,,,,,
# 6. Label.,,,,,,,,,,,,,,
# 7. Latin Square Group.,,,,,,,,,,,,,,
# 8. PennElementType.,,,,,,,,,,,,,,
# 9. PennElementName.,,,,,,,,,,,,,,
# 10. Parameter.,,,,,,,,,,,,,,
# 11. Value.,,,,,,,,,,,,,,
# 12. EventTime.,,,,,,,,,,,,,,
# 13. ID.,,,,,,,,,,,,,,
# 14. Comments.,,,,,,,,,,,,,,
1633999781,52cebdff8c1e2433c2310be25bd03be3,2,0,intro,NULL,PennController,0,_Trial_,Start,1.634E+12,6063,NULL,,
1633999781,52cebdff8c1e2433c2310be25bd03be3,2,0,intro,NULL,PennController,0,_Trial_,End,1.634E+12,6063,NULL,,
# 13. Comments.,,,,,,,,,,,,,,
1633999781,52cebdff8c1e2433c2310be25bd03be3,3,0,beginning,NULL,PennController,1,_Trial_,Start,1.634E+12,NULL,,,
1633999781,52cebdff8c1e2433c2310be25bd03be3,3,0,beginning,NULL,PennController,1,_Trial_,End,1.634E+12,NULL,,,
# 13. group.,,,,,,,,,,,,,,
# 14. condition.,,,,,,,,,,,,,,
# 15. item.,,,,,,,,,,,,,,
# 16. Comments.,,,,,,,,,,,,,,
1633999781,52cebdff8c1e2433c2310be25bd03be3,4,0,experiment,NULL,PennController,4,_Trial_,Start,1.634E+12,D,contrast,animal,NULL
1633999781,52cebdff8c1e2433c2310be25bd03be3,4,0,experiment,NULL,SelectionGrid,test-phase,Selections,sub-dalmatian-2.jpg;sub-dalmatian-1.jpg|sub-dalmatian-2.jpg;true;2854:sub-dalmatian-1.jpg;true;4176,1.634E+12,D,contrast,animal,NULL
1633999781,52cebdff8c1e2433c2310be25bd03be3,4,0,experiment,NULL,PennController,4,_Trial_,End,1.634E+12,D,contrast,animal,NULL
1633999781,52cebdff8c1e2433c2310be25bd03be3,5,0,experiment,NULL,PennController,5,_Trial_,Start,1.634E+12,D,contrast,beast,NULL
1633999781,52cebdff8c1e2433c2310be25bd03be3,5,0,experiment,NULL,SelectionGrid,test-phase,Selections,sub-trex-1.jpg;sub-trex-2.jpg|sub-trex-1.jpg;true;2879:sub-trex-2.jpg;true;5802,1.634E+12,D,contrast,beast,NULL
1633999781,52cebdff8c1e2433c2310be25bd03be3,5,0,experiment,NULL,PennController,5,_Trial_,End,1.634E+12,D,contrast,beast,NULL
1633999781,52cebdff8c1e2433c2310be25bd03be3,6,0,experiment,NULL,PennController,6,_Trial_,Start,1.634E+12,D,single,electronics,NULL
1633999781,52cebdff8c1e2433c2310be25bd03be3,6,0,experiment,NULL,SelectionGrid,test-phase,Selections,sub-smart_phone-1.jpg;sub-smart_phone-2.jpg;contrast-flip_phone-1.jpg;contrast-flip_phone-2.jpg|sub-smart_phone-1.jpg;true;2860:sub-smart_phone-2.jpg;true;5026:basic-phone-3.jpg;true;9407:basic-phone-3.jpg;false;10194:contrast-flip_phone-1.jpg;true;10808:contrast-flip_phone-2.jpg;true;11226,1.634E+12,D,single,electronics,NULL
1633999781,52cebdff8c1e2433c2310be25bd03be3,6,0,experiment,NULL,PennController,6,_Trial_,End,1.634E+12,D,single,electronics,NULL
1633999781,52cebdff8c1e2433c2310be25bd03be3,7,0,experiment,NULL,PennController,7,_Trial_,Start,1.634E+12,D,single,Filler-Color-red,NULL
1633999781,52cebdff8c1e2433c2310be25bd03be3,7,0,experiment,NULL,SelectionGrid,test-phase,Selections,red-rect.jpg|red-rect.jpg;true;1389:red-rect.jpg;true;1854:red-rect.jpg;true;2429:red-rect.jpg;true;3083:red-rect.jpg;true;3651:red-rect.jpg;true;4123,1.634E+12,D,single,Filler-Color-red,NULL
1633999781,52cebdff8c1e2433c2310be25bd03be3,7,0,experiment,NULL,PennController,7,_Trial_,End,1.634E+12,D,single,Filler-Color-red,NULL
1633999781,52cebdff8c1e2433c2310be25bd03be3,8,0,experiment,NULL,PennController,8,_Trial_,Start,1.634E+12,D,single,fruit,NULL
1633999781,52cebdff8c1e2433c2310be25bd03be3,8,0,experiment,NULL,SelectionGrid,test-phase,Selections,sub-red_apple-1.jpg;sub-red_apple-2.jpg;contrast-green_apple-1.jpg;basic-apple-2.jpg;basic-apple-3.jpg;contrast-green_apple-2.jpg;basic-apple-1.jpg|sub-red_apple-1.jpg;true;2545:sub-red_apple-2.jpg;true;3065:contrast-green_apple-1.jpg;true;3657:basic-apple-2.jpg;true;4366:basic-apple-3.jpg;true;5996:contrast-green_apple-2.jpg;true;7201:basic-apple-1.jpg;true;7745,1.634E+12,D,single,fruit,NULL
1633999781,52cebdff8c1e2433c2310be25bd03be3,8,0,experiment,NULL,PennController,8,_Trial_,End,1.634E+12,D,single,fruit,NULL
1633999781,52cebdff8c1e2433c2310be25bd03be3,9,0,experiment,NULL,PennController,9,_Trial_,Start,1.634E+12,D,contrast,furniture,NULL
1633999781,52cebdff8c1e2433c2310be25bd03be3,9,0,experiment,NULL,SelectionGrid,test-phase,Selections,sub-wooden_chair-2.jpg;sub-wooden_chair-1.jpg;basic-chair-3.jpg|sub-wooden_chair-2.jpg;true;1994:sub-wooden_chair-1.jpg;true;3364:basic-chair-3.jpg;true;5759,1.634E+12,D,contrast,furniture,NULL
1633999781,52cebdff8c1e2433c2310be25bd03be3,9,0,experiment,NULL,PennController,9,_Trial_,End,1.634E+12,D,contrast,furniture,NULL
1633999781,52cebdff8c1e2433c2310be25bd03be3,10,0,experiment,NULL,PennController,10,_Trial_,Start,1.634E+12,D,contrast,light,NULL
1633999781,52cebdff8c1e2433c2310be25bd03be3,10,0,experiment,NULL,SelectionGrid,test-phase,Selections,sub-gooseneck_lamp-2.jpg;sub-gooseneck_lamp-1.jpg|sub-gooseneck_lamp-2.jpg;true;2832:sub-gooseneck_lamp-1.jpg;true;4132,1.634E+12,D,contrast,light,NULL
1633999781,52cebdff8c1e2433c2310be25bd03be3,10,0,experiment,NULL,PennController,10,_Trial_,End,1.634E+12,D,contrast,light,NULL
1633999781,52cebdff8c1e2433c2310be25bd03be3,11,0,experiment,NULL,PennController,11,_Trial_,Start,1.634E+12,D,single,Filler-Shape-triangle,NULL
1633999781,52cebdff8c1e2433c2310be25bd03be3,11,0,experiment,NULL,SelectionGrid,test-phase,Selections,triangle-5.jpg;triangle-3.jpg;triangle-2.jpg;triangle-4.jpg;triangle-1.jpg|triangle-5.jpg;true;4337:triangle-3.jpg;true;4975:triangle-2.jpg;true;5400:triangle-4.jpg;true;5905:triangle-1.jpg;true;6463,1.634E+12,D,single,Filler-Shape-triangle,NULL
1633999781,52cebdff8c1e2433c2310be25bd03be3,11,0,experiment,NULL,PennController,11,_Trial_,End,1.634E+12,D,single,Filler-Shape-triangle,NULL
1633999781,52cebdff8c1e2433c2310be25bd03be3,12,0,experiment,NULL,PennController,12,_Trial_,Start,1.634E+12,D,single,vegetable,NULL
1633999781,52cebdff8c1e2433c2310be25bd03be3,12,0,experiment,NULL,SelectionGrid,test-phase,Selections,sub-green_pepper-1.jpg;basic-pepper-3.jpg;basic-pepper-2.jpg;sub-green_pepper-2.jpg;contrast-red_pepper-1.jpg;basic-pepper-1.jpg;contrast-red_pepper-2.jpg|sub-green_pepper-1.jpg;true;1721:basic-pepper-3.jpg;true;2651:basic-pepper-2.jpg;true;3518:sub-green_pepper-2.jpg;true;4132:contrast-red_pepper-1.jpg;true;4549:basic-pepper-1.jpg;true;5038:contrast-red_pepper-2.jpg;true;5464,1.634E+12,D,single,vegetable,NULL
1633999781,52cebdff8c1e2433c2310be25bd03be3,12,0,experiment,NULL,PennController,12,_Trial_,End,1.634E+12,D,single,vegetable,NULL
1633999781,52cebdff8c1e2433c2310be25bd03be3,13,0,experiment,NULL,PennController,13,_Trial_,Start,1.634E+12,D,single,vehicle,NULL
1633999781,52cebdff8c1e2433c2310be25bd03be3,13,0,experiment,NULL,SelectionGrid,test-phase,Selections,sub-racecar-2.jpg;sub-racecar-1.jpg|sub-racecar-2.jpg;true;1730:sub-racecar-1.jpg;true;4022,1.634E+12,D,single,vehicle,NULL
1633999781,52cebdff8c1e2433c2310be25bd03be3,13,0,experiment,NULL,PennController,13,_Trial_,End,1.634E+12,D,single,vehicle,NULL
# 13. window_size.,,,,,,,,,,,,,,
# 14. Comments.,,,,,,,,,,,,,,
1633999781,52cebdff8c1e2433c2310be25bd03be3,14,0,end,NULL,PennController,2,_Trial_,Start,1.634E+12,1413x745,NULL,,
1633999781,52cebdff8c1e2433c2310be25bd03be3,14,0,end,NULL,PennController,2,_Trial_,End,1.634E+12,1413x745,NULL,,
#,,,,,,,,,,,,,,
# Results on Tue, 12 Oct 2021 01:34:46 GMT,,,,,,,,,,,,,
# USER AGENT: Mozilla/5.0 (Macintosh; Intel Mac OS X 10_15_7) AppleWebKit/605.1.15 (KHTML, like Gecko) Version/14.1.1 Safari/605.1.15,,,,,,,,,,,,,
# Design number was non-random = 20,,,,,,,,,,,,,,
#,,,,,,,,,,,,,,
# Columns below this comment are as follows:,,,,,,,,,,,,,,
# 1. Results reception time.,,,,,,,,,,,,,,
# 2. MD5 hash of participant's IP address.,,,,,,,,,,,,,,
# 3. Controller name.,,,,,,,,,,,,,,
# 4. Order number of item.,,,,,,,,,,,,,,
# 5. Inner element number.,,,,,,,,,,,,,,
# 6. Label.,,,,,,,,,,,,,,
# 7. Latin Square Group.,,,,,,,,,,,,,,
# 8. PennElementType.,,,,,,,,,,,,,,
# 9. PennElementName.,,,,,,,,,,,,,,
# 10. Parameter.,,,,,,,,,,,,,,
# 11. Value.,,,,,,,,,,,,,,
# 12. EventTime.,,,,,,,,,,,,,,
# 13. ID.,,,,,,,,,,,,,,
# 14. Comments.,,,,,,,,,,,,,,
1634002486,7a4a69c7de10e01f2553b14568bcfdd9,2,0,intro,NULL,PennController,0,_Trial_,Start,1.634E+12,9767,NULL,,
1634002486,7a4a69c7de10e01f2553b14568bcfdd9,2,0,intro,NULL,PennController,0,_Trial_,End,1.634E+12,9767,NULL,,
# 13. Comments.,,,,,,,,,,,,,,
1634002486,7a4a69c7de10e01f2553b14568bcfdd9,3,0,beginning,NULL,PennController,1,_Trial_,Start,1.634E+12,NULL,,,
1634002486,7a4a69c7de10e01f2553b14568bcfdd9,3,0,beginning,NULL,PennController,1,_Trial_,End,1.634E+12,NULL,,,
# 13. group.,,,,,,,,,,,,,,
# 14. condition.,,,,,,,,,,,,,,
# 15. item.,,,,,,,,,,,,,,
# 16. Comments.,,,,,,,,,,,,,,
1634002486,7a4a69c7de10e01f2553b14568bcfdd9,4,0,experiment,NULL,PennController,4,_Trial_,Start,1.634E+12,A,single,animal,NULL
1634002486,7a4a69c7de10e01f2553b14568bcfdd9,4,0,experiment,NULL,SelectionGrid,test-phase,Selections,sub-dalmatian-1.jpg;basic-dog-2.jpg;contrast-corgi-2.jpg;contrast-corgi-1.jpg;sub-dalmatian-2.jpg;basic-dog-1.jpg;basic-dog-3.jpg|sub-dalmatian-1.jpg;true;2038:basic-dog-2.jpg;true;2917:contrast-corgi-2.jpg;true;3581:contrast-corgi-1.jpg;true;4260:sub-dalmatian-2.jpg;true;4844:basic-dog-1.jpg;true;5546:basic-dog-3.jpg;true;8207,1.634E+12,A,single,animal,NULL
1634002486,7a4a69c7de10e01f2553b14568bcfdd9,4,0,experiment,NULL,PennController,4,_Trial_,End,1.634E+12,A,single,animal,NULL
1634002486,7a4a69c7de10e01f2553b14568bcfdd9,5,0,experiment,NULL,PennController,5,_Trial_,Start,1.634E+12,A,contrast,beast,NULL
1634002486,7a4a69c7de10e01f2553b14568bcfdd9,5,0,experiment,NULL,SelectionGrid,test-phase,Selections,sub-trex-2.jpg;sub-trex-1.jpg|sub-trex-2.jpg;true;3648:basic-dinosaur-2.jpg;true;4877:basic-dinosaur-2.jpg;false;5872:sub-trex-1.jpg;true;6478,1.634E+12,A,contrast,beast,NULL
1634002486,7a4a69c7de10e01f2553b14568bcfdd9,5,0,experiment,NULL,PennController,5,_Trial_,End,1.634E+12,A,contrast,beast,NULL
1634002486,7a4a69c7de10e01f2553b14568bcfdd9,6,0,experiment,NULL,PennController,6,_Trial_,Start,1.634E+12,A,single,electronics,NULL
1634002486,7a4a69c7de10e01f2553b14568bcfdd9,6,0,experiment,NULL,SelectionGrid,test-phase,Selections,sub-smart_phone-2.jpg;contrast-flip_phone-2.jpg;contrast-flip_phone-1.jpg;sub-smart_phone-1.jpg;basic-phone-2.jpg;basic-phone-3.jpg|sub-smart_phone-2.jpg;true;2734:contrast-flip_phone-2.jpg;true;3341:contrast-flip_phone-1.jpg;true;3834:sub-smart_phone-1.jpg;true;4562:basic-phone-2.jpg;true;5541:basic-phone-3.jpg;true;7063,1.634E+12,A,single,electronics,NULL
1634002486,7a4a69c7de10e01f2553b14568bcfdd9,6,0,experiment,NULL,PennController,6,_Trial_,End,1.634E+12,A,single,electronics,NULL
1634002486,7a4a69c7de10e01f2553b14568bcfdd9,7,0,experiment,NULL,PennController,7,_Trial_,Start,1.634E+12,A,single,Filler-Color-red,NULL
1634002486,7a4a69c7de10e01f2553b14568bcfdd9,7,0,experiment,NULL,SelectionGrid,test-phase,Selections,red-rect.jpg|red-rect.jpg;true;1635:red-rect.jpg;true;2064:red-rect.jpg;true;2647:red-rect.jpg;true;3811:red-rect.jpg;true;4169:red-rect.jpg;true;4719,1.634E+12,A,single,Filler-Color-red,NULL
1634002486,7a4a69c7de10e01f2553b14568bcfdd9,7,0,experiment,NULL,PennController,7,_Trial_,End,1.634E+12,A,single,Filler-Color-red,NULL
1634002486,7a4a69c7de10e01f2553b14568bcfdd9,8,0,experiment,NULL,PennController,8,_Trial_,Start,1.634E+12,A,contrast,fruit,NULL
1634002486,7a4a69c7de10e01f2553b14568bcfdd9,8,0,experiment,NULL,SelectionGrid,test-phase,Selections,sub-red_apple-1.jpg;sub-red_apple-2.jpg|sub-red_apple-1.jpg;true;1707:sub-red_apple-1.jpg;false;2444:sub-red_apple-1.jpg;true;2928:sub-red_apple-2.jpg;true;3592:basic-apple-3.jpg;true;4199:basic-apple-3.jpg;false;7177,1.634E+12,A,contrast,fruit,NULL
1634002486,7a4a69c7de10e01f2553b14568bcfdd9,8,0,experiment,NULL,PennController,8,_Trial_,End,1.634E+12,A,contrast,fruit,NULL
1634002486,7a4a69c7de10e01f2553b14568bcfdd9,9,0,experiment,NULL,PennController,9,_Trial_,Start,1.634E+12,A,single,furniture,NULL
1634002486,7a4a69c7de10e01f2553b14568bcfdd9,9,0,experiment,NULL,SelectionGrid,test-phase,Selections,sub-wooden_chair-2.jpg;contrast-office_chair-2.jpg;contrast-office_chair-1.jpg;basic-chair-3.jpg;basic-chair-1.jpg;sub-wooden_chair-1.jpg|sub-wooden_chair-2.jpg;true;1563:contrast-office_chair-2.jpg;true;3139:contrast-office_chair-1.jpg;true;4077:basic-chair-3.jpg;true;4860:basic-chair-1.jpg;true;5662:sub-wooden_chair-1.jpg;true;6950,1.634E+12,A,single,furniture,NULL
1634002486,7a4a69c7de10e01f2553b14568bcfdd9,9,0,experiment,NULL,PennController,9,_Trial_,End,1.634E+12,A,single,furniture,NULL
1634002486,7a4a69c7de10e01f2553b14568bcfdd9,10,0,experiment,NULL,PennController,10,_Trial_,Start,1.634E+12,A,contrast,light,NULL
1634002486,7a4a69c7de10e01f2553b14568bcfdd9,10,0,experiment,NULL,SelectionGrid,test-phase,Selections,sub-gooseneck_lamp-2.jpg;sub-gooseneck_lamp-1.jpg|sub-gooseneck_lamp-2.jpg;true;2985:sub-gooseneck_lamp-1.jpg;true;3916,1.634E+12,A,contrast,light,NULL
1634002486,7a4a69c7de10e01f2553b14568bcfdd9,10,0,experiment,NULL,PennController,10,_Trial_,End,1.634E+12,A,contrast,light,NULL
1634002486,7a4a69c7de10e01f2553b14568bcfdd9,11,0,experiment,NULL,PennController,11,_Trial_,Start,1.634E+12,A,single,Filler-Shape-triangle,NULL
1634002486,7a4a69c7de10e01f2553b14568bcfdd9,11,0,experiment,NULL,SelectionGrid,test-phase,Selections,triangle-5.jpg;triangle-3.jpg;triangle-2.jpg;triangle-4.jpg;triangle-1.jpg|triangle-5.jpg;true;1198:triangle-3.jpg;true;1544:triangle-2.jpg;true;1925:triangle-4.jpg;true;2539:triangle-1.jpg;true;3040,1.634E+12,A,single,Filler-Shape-triangle,NULL
1634002486,7a4a69c7de10e01f2553b14568bcfdd9,11,0,experiment,NULL,PennController,11,_Trial_,End,1.634E+12,A,single,Filler-Shape-triangle,NULL
1634002486,7a4a69c7de10e01f2553b14568bcfdd9,12,0,experiment,NULL,PennController,12,_Trial_,Start,1.634E+12,A,single,vegetable,NULL
1634002486,7a4a69c7de10e01f2553b14568bcfdd9,12,0,experiment,NULL,SelectionGrid,test-phase,Selections,sub-green_pepper-2.jpg;sub-green_pepper-1.jpg;basic-pepper-2.jpg;basic-pepper-3.jpg;basic-pepper-1.jpg;contrast-red_pepper-2.jpg|sub-green_pepper-2.jpg;true;1443:sub-green_pepper-1.jpg;true;2040:basic-pepper-2.jpg;true;4880:basic-pepper-3.jpg;true;5544:basic-pepper-1.jpg;true;5973:contrast-red_pepper-2.jpg;true;7129,1.634E+12,A,single,vegetable,NULL
1634002486,7a4a69c7de10e01f2553b14568bcfdd9,12,0,experiment,NULL,PennController,12,_Trial_,End,1.634E+12,A,single,vegetable,NULL
1634002486,7a4a69c7de10e01f2553b14568bcfdd9,13,0,experiment,NULL,PennController,13,_Trial_,Start,1.634E+12,A,contrast,vehicle,NULL
1634002486,7a4a69c7de10e01f2553b14568bcfdd9,13,0,experiment,NULL,SelectionGrid,test-phase,Selections,sub-racecar-1.jpg;sub-racecar-2.jpg|sub-racecar-1.jpg;true;3939:sub-racecar-2.jpg;true;4925,1.634E+12,A,contrast,vehicle,NULL
1634002486,7a4a69c7de10e01f2553b14568bcfdd9,13,0,experiment,NULL,PennController,13,_Trial_,End,1.634E+12,A,contrast,vehicle,NULL
# 13. window_size.,,,,,,,,,,,,,,
# 14. Comments.,,,,,,,,,,,,,,
1634002486,7a4a69c7de10e01f2553b14568bcfdd9,14,0,end,NULL,PennController,2,_Trial_,Start,1.634E+12,1379x697,NULL,,
1634002486,7a4a69c7de10e01f2553b14568bcfdd9,14,0,end,NULL,PennController,2,_Trial_,End,1.634E+12,1379x697,NULL,,
#,,,,,,,,,,,,,,
# Results on Tue, 12 Oct 2021 03:57:27 GMT,,,,,,,,,,,,,
# USER AGENT: Mozilla/5.0 (Macintosh; Intel Mac OS X 10_15_7) AppleWebKit/537.36 (KHTML, like Gecko) Chrome/93.0.4577.63 Safari/537.36,,,,,,,,,,,,,
# Design number was non-random = 21,,,,,,,,,,,,,,
#,,,,,,,,,,,,,,
# Columns below this comment are as follows:,,,,,,,,,,,,,,
# 1. Results reception time.,,,,,,,,,,,,,,
# 2. MD5 hash of participant's IP address.,,,,,,,,,,,,,,
# 3. Controller name.,,,,,,,,,,,,,,
# 4. Order number of item.,,,,,,,,,,,,,,
# 5. Inner element number.,,,,,,,,,,,,,,
# 6. Label.,,,,,,,,,,,,,,
# 7. Latin Square Group.,,,,,,,,,,,,,,
# 8. PennElementType.,,,,,,,,,,,,,,
# 9. PennElementName.,,,,,,,,,,,,,,
# 10. Parameter.,,,,,,,,,,,,,,
# 11. Value.,,,,,,,,,,,,,,
# 12. EventTime.,,,,,,,,,,,,,,
# 13. ID.,,,,,,,,,,,,,,
# 14. Comments.,,,,,,,,,,,,,,
1634011047,3d2a5ad1bdad0baf052031ad096a77a8,2,0,intro,NULL,PennController,0,_Trial_,Start,1.63401E+12,7600,NULL,,
1634011047,3d2a5ad1bdad0baf052031ad096a77a8,2,0,intro,NULL,PennController,0,_Trial_,End,1.63401E+12,7600,NULL,,
# 13. Comments.,,,,,,,,,,,,,,
1634011047,3d2a5ad1bdad0baf052031ad096a77a8,3,0,beginning,NULL,PennController,1,_Trial_,Start,1.63401E+12,NULL,,,
1634011047,3d2a5ad1bdad0baf052031ad096a77a8,3,0,beginning,NULL,PennController,1,_Trial_,End,1.63401E+12,NULL,,,
# 13. group.,,,,,,,,,,,,,,
# 14. condition.,,,,,,,,,,,,,,
# 15. item.,,,,,,,,,,,,,,
# 16. Comments.,,,,,,,,,,,,,,
1634011047,3d2a5ad1bdad0baf052031ad096a77a8,4,0,experiment,NULL,PennController,4,_Trial_,Start,1.63401E+12,B,contrast,animal,NULL
1634011047,3d2a5ad1bdad0baf052031ad096a77a8,4,0,experiment,NULL,SelectionGrid,test-phase,Selections,contrast-corgi-2.jpg;basic-dog-2.jpg;contrast-corgi-1.jpg|contrast-corgi-2.jpg;true;4574:basic-dog-2.jpg;true;5795:contrast-corgi-1.jpg;true;11880,1.63401E+12,B,contrast,animal,NULL
1634011047,3d2a5ad1bdad0baf052031ad096a77a8,4,0,experiment,NULL,PennController,4,_Trial_,End,1.63401E+12,B,contrast,animal,NULL
1634011047,3d2a5ad1bdad0baf052031ad096a77a8,5,0,experiment,NULL,PennController,5,_Trial_,Start,1.63401E+12,B,single,beast,NULL
1634011047,3d2a5ad1bdad0baf052031ad096a77a8,5,0,experiment,NULL,SelectionGrid,test-phase,Selections,sub-trex-2.jpg;sub-trex-1.jpg;basic-dinosaur-3.jpg;basic-dinosaur-1.jpg;basic-dinosaur-2.jpg;contrast-triceratops-2.jpg;sup-beast-1.jpg;contrast-triceratops-1.jpg|sub-trex-2.jpg;true;2342:sub-trex-1.jpg;true;3256:basic-dinosaur-3.jpg;true;4128:basic-dinosaur-1.jpg;true;4657:basic-dinosaur-2.jpg;true;5224:contrast-triceratops-2.jpg;true;6420:sup-beast-1.jpg;true;24424:contrast-triceratops-1.jpg;true;28470,1.63401E+12,B,single,beast,NULL
1634011047,3d2a5ad1bdad0baf052031ad096a77a8,5,0,experiment,NULL,PennController,5,_Trial_,End,1.63401E+12,B,single,beast,NULL
1634011047,3d2a5ad1bdad0baf052031ad096a77a8,6,0,experiment,NULL,PennController,6,_Trial_,Start,1.63401E+12,B,contrast,electronics,NULL
1634011047,3d2a5ad1bdad0baf052031ad096a77a8,6,0,experiment,NULL,SelectionGrid,test-phase,Selections,sub-smart_phone-2.jpg;sub-smart_phone-1.jpg|sub-smart_phone-2.jpg;true;2937:sub-smart_phone-1.jpg;true;4501,1.63401E+12,B,contrast,electronics,NULL
1634011047,3d2a5ad1bdad0baf052031ad096a77a8,6,0,experiment,NULL,PennController,6,_Trial_,End,1.63401E+12,B,contrast,electronics,NULL
1634011047,3d2a5ad1bdad0baf052031ad096a77a8,7,0,experiment,NULL,PennController,7,_Trial_,Start,1.63401E+12,B,single,Filler-Color-red,NULL
1634011047,3d2a5ad1bdad0baf052031ad096a77a8,7,0,experiment,NULL,SelectionGrid,test-phase,Selections,red-rect.jpg|red-rect.jpg;true;1381:red-rect.jpg;true;1872:red-rect.jpg;true;2554:red-rect.jpg;true;3299:red-rect.jpg;true;3666:red-rect.jpg;true;4419,1.63401E+12,B,single,Filler-Color-red,NULL
1634011047,3d2a5ad1bdad0baf052031ad096a77a8,7,0,experiment,NULL,PennController,7,_Trial_,End,1.63401E+12,B,single,Filler-Color-red,NULL
1634011047,3d2a5ad1bdad0baf052031ad096a77a8,8,0,experiment,NULL,PennController,8,_Trial_,Start,1.63401E+12,B,single,fruit,NULL
1634011047,3d2a5ad1bdad0baf052031ad096a77a8,8,0,experiment,NULL,SelectionGrid,test-phase,Selections,sub-red_apple-2.jpg;sub-red_apple-1.jpg;basic-apple-1.jpg;contrast-green_apple-2.jpg;basic-apple-2.jpg;contrast-green_apple-1.jpg;basic-apple-3.jpg|sub-red_apple-2.jpg;true;2352:sub-red_apple-1.jpg;true;3481:basic-apple-1.jpg;true;4348:contrast-green_apple-2.jpg;true;5085:basic-apple-2.jpg;true;5665:contrast-green_apple-1.jpg;true;7028:basic-apple-3.jpg;true;8566,1.63401E+12,B,single,fruit,NULL
1634011047,3d2a5ad1bdad0baf052031ad096a77a8,8,0,experiment,NULL,PennController,8,_Trial_,End,1.63401E+12,B,single,fruit,NULL
1634011047,3d2a5ad1bdad0baf052031ad096a77a8,9,0,experiment,NULL,PennController,9,_Trial_,Start,1.63401E+12,B,contrast,furniture,NULL
1634011047,3d2a5ad1bdad0baf052031ad096a77a8,9,0,experiment,NULL,SelectionGrid,test-phase,Selections,sub-wooden_chair-2.jpg;basic-chair-3.jpg;sub-wooden_chair-1.jpg|sub-wooden_chair-2.jpg;true;3799:basic-chair-3.jpg;true;5237:sub-wooden_chair-1.jpg;true;7273,1.63401E+12,B,contrast,furniture,NULL
1634011047,3d2a5ad1bdad0baf052031ad096a77a8,9,0,experiment,NULL,PennController,9,_Trial_,End,1.63401E+12,B,contrast,furniture,NULL
1634011047,3d2a5ad1bdad0baf052031ad096a77a8,10,0,experiment,NULL,PennController,10,_Trial_,Start,1.63401E+12,B,single,light,NULL
1634011047,3d2a5ad1bdad0baf052031ad096a77a8,10,0,experiment,NULL,SelectionGrid,test-phase,Selections,sub-gooseneck_lamp-1.jpg;sub-gooseneck_lamp-2.jpg;contrast-desk_lamp-1.jpg;contrast-desk_lamp-2.jpg|sub-gooseneck_lamp-1.jpg;true;1914:sub-gooseneck_lamp-2.jpg;true;2545:contrast-desk_lamp-1.jpg;true;7601:contrast-desk_lamp-2.jpg;true;8695,1.63401E+12,B,single,light,NULL
1634011047,3d2a5ad1bdad0baf052031ad096a77a8,10,0,experiment,NULL,PennController,10,_Trial_,End,1.63401E+12,B,single,light,NULL
1634011047,3d2a5ad1bdad0baf052031ad096a77a8,11,0,experiment,NULL,PennController,11,_Trial_,Start,1.63401E+12,B,single,Filler-Shape-triangle,NULL
1634011047,3d2a5ad1bdad0baf052031ad096a77a8,11,0,experiment,NULL,SelectionGrid,test-phase,Selections,triangle-5.jpg;triangle-3.jpg;triangle-2.jpg;triangle-4.jpg;triangle-1.jpg|triangle-5.jpg;true;1074:triangle-3.jpg;true;1527:triangle-2.jpg;true;1886:triangle-4.jpg;true;2377:triangle-1.jpg;true;2972,1.63401E+12,B,single,Filler-Shape-triangle,NULL
1634011047,3d2a5ad1bdad0baf052031ad096a77a8,11,0,experiment,NULL,PennController,11,_Trial_,End,1.63401E+12,B,single,Filler-Shape-triangle,NULL
1634011047,3d2a5ad1bdad0baf052031ad096a77a8,12,0,experiment,NULL,PennController,12,_Trial_,Start,1.63401E+12,B,contrast,vegetable,NULL
1634011047,3d2a5ad1bdad0baf052031ad096a77a8,12,0,experiment,NULL,SelectionGrid,test-phase,Selections,sub-green_pepper-2.jpg;sub-green_pepper-1.jpg|sub-green_pepper-2.jpg;true;1912:sub-green_pepper-1.jpg;true;3357,1.63401E+12,B,contrast,vegetable,NULL
1634011047,3d2a5ad1bdad0baf052031ad096a77a8,12,0,experiment,NULL,PennController,12,_Trial_,End,1.63401E+12,B,contrast,vegetable,NULL
1634011047,3d2a5ad1bdad0baf052031ad096a77a8,13,0,experiment,NULL,PennController,13,_Trial_,Start,1.63401E+12,B,single,vehicle,NULL
1634011047,3d2a5ad1bdad0baf052031ad096a77a8,13,0,experiment,NULL,SelectionGrid,test-phase,Selections,sub-racecar-2.jpg;sub-racecar-1.jpg|sub-racecar-2.jpg;true;2375:sub-racecar-1.jpg;true;5050,1.63401E+12,B,single,vehicle,NULL
1634011047,3d2a5ad1bdad0baf052031ad096a77a8,13,0,experiment,NULL,PennController,13,_Trial_,End,1.63401E+12,B,single,vehicle,NULL
# 13. window_size.,,,,,,,,,,,,,,
# 14. Comments.,,,,,,,,,,,,,,
1634011047,3d2a5ad1bdad0baf052031ad096a77a8,14,0,end,NULL,PennController,2,_Trial_,Start,1.63401E+12,1420x684,NULL,,
1634011047,3d2a5ad1bdad0baf052031ad096a77a8,14,0,end,NULL,PennController,2,_Trial_,End,1.63401E+12,1420x684,NULL,,
#,,,,,,,,,,,,,,
# Results on Tue, 12 Oct 2021 14:16:15 GMT,,,,,,,,,,,,,
# USER AGENT: Mozilla/5.0 (Macintosh; Intel Mac OS X 10_15_7) AppleWebKit/537.36 (KHTML, like Gecko) Chrome/94.0.4606.71 Safari/537.36,,,,,,,,,,,,,
# Design number was non-random = 22,,,,,,,,,,,,,,
#,,,,,,,,,,,,,,
# Columns below this comment are as follows:,,,,,,,,,,,,,,
# 1. Results reception time.,,,,,,,,,,,,,,
# 2. MD5 hash of participant's IP address.,,,,,,,,,,,,,,
# 3. Controller name.,,,,,,,,,,,,,,
# 4. Order number of item.,,,,,,,,,,,,,,
# 5. Inner element number.,,,,,,,,,,,,,,
# 6. Label.,,,,,,,,,,,,,,
# 7. Latin Square Group.,,,,,,,,,,,,,,
# 8. PennElementType.,,,,,,,,,,,,,,
# 9. PennElementName.,,,,,,,,,,,,,,
# 10. Parameter.,,,,,,,,,,,,,,
# 11. Value.,,,,,,,,,,,,,,
# 12. EventTime.,,,,,,,,,,,,,,
# 13. ID.,,,,,,,,,,,,,,
# 14. Comments.,,,,,,,,,,,,,,
1634048175,0eb0033fb8cfb99676422eda4fb283ce,2,0,intro,NULL,PennController,0,_Trial_,Start,1.63405E+12,9667,NULL,,
1634048175,0eb0033fb8cfb99676422eda4fb283ce,2,0,intro,NULL,PennController,0,_Trial_,End,1.63405E+12,9667,NULL,,
# 13. Comments.,,,,,,,,,,,,,,
1634048175,0eb0033fb8cfb99676422eda4fb283ce,3,0,beginning,NULL,PennController,1,_Trial_,Start,1.63405E+12,NULL,,,
1634048175,0eb0033fb8cfb99676422eda4fb283ce,3,0,beginning,NULL,PennController,1,_Trial_,End,1.63405E+12,NULL,,,
# 13. group.,,,,,,,,,,,,,,
# 14. condition.,,,,,,,,,,,,,,
# 15. item.,,,,,,,,,,,,,,
# 16. Comments.,,,,,,,,,,,,,,
1634048175,0eb0033fb8cfb99676422eda4fb283ce,4,0,experiment,NULL,PennController,4,_Trial_,Start,1.63405E+12,C,single,animal,NULL
1634048175,0eb0033fb8cfb99676422eda4fb283ce,4,0,experiment,NULL,SelectionGrid,test-phase,Selections,basic-dog-2.jpg;sup-animal-3.jpg;basic-dog-3.jpg;basic-dog-1.jpg;sub-dalmatian-1.jpg;sub-dalmatian-2.jpg;contrast-corgi-2.jpg;contrast-corgi-1.jpg|basic-dog-2.jpg;true;2551:sup-animal-3.jpg;true;3284:basic-dog-3.jpg;true;4794:basic-dog-1.jpg;true;5337:sub-dalmatian-1.jpg;true;5801:sub-dalmatian-2.jpg;true;6303:contrast-corgi-2.jpg;true;7413:contrast-corgi-1.jpg;true;8045,1.63405E+12,C,single,animal,NULL
1634048175,0eb0033fb8cfb99676422eda4fb283ce,4,0,experiment,NULL,PennController,4,_Trial_,End,1.63405E+12,C,single,animal,NULL
1634048175,0eb0033fb8cfb99676422eda4fb283ce,5,0,experiment,NULL,PennController,5,_Trial_,Start,1.63405E+12,C,single,beast,NULL
1634048175,0eb0033fb8cfb99676422eda4fb283ce,5,0,experiment,NULL,SelectionGrid,test-phase,Selections,basic-dinosaur-3.jpg;contrast-triceratops-1.jpg;sup-beast-1.jpg;contrast-triceratops-2.jpg;sub-trex-2.jpg;sub-trex-1.jpg;basic-dinosaur-1.jpg;basic-dinosaur-2.jpg|basic-dinosaur-3.jpg;true;1390:contrast-triceratops-1.jpg;true;2604:sup-beast-1.jpg;true;3281:contrast-triceratops-2.jpg;true;3824:sub-trex-2.jpg;true;4680:sub-trex-1.jpg;true;5296:basic-dinosaur-1.jpg;true;6094:basic-dinosaur-2.jpg;true;7644,1.63405E+12,C,single,beast,NULL
1634048175,0eb0033fb8cfb99676422eda4fb283ce,5,0,experiment,NULL,PennController,5,_Trial_,End,1.63405E+12,C,single,beast,NULL
1634048175,0eb0033fb8cfb99676422eda4fb283ce,6,0,experiment,NULL,PennController,6,_Trial_,Start,1.63405E+12,C,contrast,electronics,NULL
1634048175,0eb0033fb8cfb99676422eda4fb283ce,6,0,experiment,NULL,SelectionGrid,test-phase,Selections,sub-smart_phone-1.jpg;sub-smart_phone-2.jpg|sub-smart_phone-1.jpg;true;1423:sub-smart_phone-2.jpg;true;2366,1.63405E+12,C,contrast,electronics,NULL
1634048175,0eb0033fb8cfb99676422eda4fb283ce,6,0,experiment,NULL,PennController,6,_Trial_,End,1.63405E+12,C,contrast,electronics,NULL
1634048175,0eb0033fb8cfb99676422eda4fb283ce,7,0,experiment,NULL,PennController,7,_Trial_,Start,1.63405E+12,C,single,Filler-Color-red,NULL
1634048175,0eb0033fb8cfb99676422eda4fb283ce,7,0,experiment,NULL,SelectionGrid,test-phase,Selections,red-rect.jpg;blue-rect.jpg;green-rect.jpg|red-rect.jpg;true;3176:blue-rect.jpg;true;4271:green-rect.jpg;true;4894:red-rect.jpg;true;5429:blue-rect.jpg;true;5948:red-rect.jpg;true;6595:blue-rect.jpg;true;7088:green-rect.jpg;true;7634:green-rect.jpg;true;8144:blue-rect.jpg;true;8671:blue-rect.jpg;true;9238:blue-rect.jpg;true;10133:red-rect.jpg;true;10908:green-rect.jpg;true;11515:red-rect.jpg;true;12233:green-rect.jpg;true;12736:green-rect.jpg;true;13255:red-rect.jpg;true;13902,1.63405E+12,C,single,Filler-Color-red,NULL
1634048175,0eb0033fb8cfb99676422eda4fb283ce,7,0,experiment,NULL,PennController,7,_Trial_,End,1.63405E+12,C,single,Filler-Color-red,NULL
1634048175,0eb0033fb8cfb99676422eda4fb283ce,8,0,experiment,NULL,PennController,8,_Trial_,Start,1.63405E+12,C,contrast,fruit,NULL
1634048175,0eb0033fb8cfb99676422eda4fb283ce,8,0,experiment,NULL,SelectionGrid,test-phase,Selections,sub-red_apple-2.jpg;sub-red_apple-1.jpg|sub-red_apple-2.jpg;true;2709:sub-red_apple-1.jpg;true;3875,1.63405E+12,C,contrast,fruit,NULL
1634048175,0eb0033fb8cfb99676422eda4fb283ce,8,0,experiment,NULL,PennController,8,_Trial_,End,1.63405E+12,C,contrast,fruit,NULL
1634048175,0eb0033fb8cfb99676422eda4fb283ce,9,0,experiment,NULL,PennController,9,_Trial_,Start,1.63405E+12,C,single,furniture,NULL
1634048175,0eb0033fb8cfb99676422eda4fb283ce,9,0,experiment,NULL,SelectionGrid,test-phase,Selections,sub-wooden_chair-2.jpg;sub-wooden_chair-1.jpg;contrast-office_chair-2.jpg;basic-chair-1.jpg;contrast-office_chair-1.jpg;basic-chair-3.jpg;basic-chair-2.jpg|sub-wooden_chair-2.jpg;true;2178:sub-wooden_chair-1.jpg;true;2705:contrast-office_chair-2.jpg;true;3528:basic-chair-1.jpg;true;4175:contrast-office_chair-1.jpg;true;5022:basic-chair-3.jpg;true;5565:basic-chair-2.jpg;true;6116,1.63405E+12,C,single,furniture,NULL
1634048175,0eb0033fb8cfb99676422eda4fb283ce,9,0,experiment,NULL,PennController,9,_Trial_,End,1.63405E+12,C,single,furniture,NULL
1634048175,0eb0033fb8cfb99676422eda4fb283ce,10,0,experiment,NULL,PennController,10,_Trial_,Start,1.63405E+12,C,single,light,NULL
1634048175,0eb0033fb8cfb99676422eda4fb283ce,10,0,experiment,NULL,SelectionGrid,test-phase,Selections,sub-gooseneck_lamp-1.jpg;sub-gooseneck_lamp-2.jpg;contrast-desk_lamp-1.jpg;contrast-desk_lamp-2.jpg;basic-lamp-3.jpg;basic-lamp-2.jpg;basic-lamp-1.jpg|sub-gooseneck_lamp-1.jpg;true;5030:sub-gooseneck_lamp-2.jpg;true;5677:contrast-desk_lamp-1.jpg;true;6214:sup-light-3.jpg;true;6765:sup-light-3.jpg;false;7187:contrast-desk_lamp-2.jpg;true;7874:basic-lamp-3.jpg;true;8617:basic-lamp-2.jpg;true;9327:basic-lamp-1.jpg;true;9807,1.63405E+12,C,single,light,NULL
1634048175,0eb0033fb8cfb99676422eda4fb283ce,10,0,experiment,NULL,PennController,10,_Trial_,End,1.63405E+12,C,single,light,NULL
1634048175,0eb0033fb8cfb99676422eda4fb283ce,11,0,experiment,NULL,PennController,11,_Trial_,Start,1.63405E+12,C,single,Filler-Shape-triangle,NULL
1634048175,0eb0033fb8cfb99676422eda4fb283ce,11,0,experiment,NULL,SelectionGrid,test-phase,Selections,triangle-5.jpg;triangle-3.jpg;triangle-2.jpg;triangle-4.jpg;triangle-1.jpg|triangle-5.jpg;true;4366:triangle-3.jpg;true;5053:triangle-2.jpg;true;5732:triangle-4.jpg;true;6347:triangle-1.jpg;true;7226,1.63405E+12,C,single,Filler-Shape-triangle,NULL
1634048175,0eb0033fb8cfb99676422eda4fb283ce,11,0,experiment,NULL,PennController,11,_Trial_,End,1.63405E+12,C,single,Filler-Shape-triangle,NULL
1634048175,0eb0033fb8cfb99676422eda4fb283ce,12,0,experiment,NULL,PennController,12,_Trial_,Start,1.63405E+12,C,contrast,vegetable,NULL
1634048175,0eb0033fb8cfb99676422eda4fb283ce,12,0,experiment,NULL,SelectionGrid,test-phase,Selections,sub-green_pepper-2.jpg;sub-green_pepper-1.jpg|sub-green_pepper-2.jpg;true;2180:sub-green_pepper-1.jpg;true;3210,1.63405E+12,C,contrast,vegetable,NULL
1634048175,0eb0033fb8cfb99676422eda4fb283ce,12,0,experiment,NULL,PennController,12,_Trial_,End,1.63405E+12,C,contrast,vegetable,NULL
1634048175,0eb0033fb8cfb99676422eda4fb283ce,13,0,experiment,NULL,PennController,13,_Trial_,Start,1.63405E+12,C,contrast,vehicle,NULL
1634048175,0eb0033fb8cfb99676422eda4fb283ce,13,0,experiment,NULL,SelectionGrid,test-phase,Selections,basic-car-2.jpg;sub-racecar-1.jpg;sub-racecar-2.jpg;basic-car-3.jpg|basic-car-2.jpg;true;2757:sub-racecar-1.jpg;true;3644:sub-racecar-2.jpg;true;4555:basic-car-3.jpg;true;7071,1.63405E+12,C,contrast,vehicle,NULL
1634048175,0eb0033fb8cfb99676422eda4fb283ce,13,0,experiment,NULL,PennController,13,_Trial_,End,1.63405E+12,C,contrast,vehicle,NULL
# 13. window_size.,,,,,,,,,,,,,,
# 14. Comments.,,,,,,,,,,,,,,
1634048175,0eb0033fb8cfb99676422eda4fb283ce,14,0,end,NULL,PennController,2,_Trial_,Start,1.63405E+12,1440x720,NULL,,
1634048175,0eb0033fb8cfb99676422eda4fb283ce,14,0,end,NULL,PennController,2,_Trial_,End,1.63405E+12,1440x720,NULL,,
#,,,,,,,,,,,,,,
# Results on Mon, 18 Oct 2021 18:24:32 GMT,,,,,,,,,,,,,
# USER AGENT: Mozilla/5.0 (Macintosh; Intel Mac OS X 10_15_7) AppleWebKit/537.36 (KHTML, like Gecko) Chrome/94.0.4606.71 Safari/537.36,,,,,,,,,,,,,
# Design number was non-random = 23,,,,,,,,,,,,,,
#,,,,,,,,,,,,,,
# Columns below this comment are as follows:,,,,,,,,,,,,,,
# 1. Results reception time.,,,,,,,,,,,,,,
# 2. MD5 hash of participant's IP address.,,,,,,,,,,,,,,
# 3. Controller name.,,,,,,,,,,,,,,
# 4. Order number of item.,,,,,,,,,,,,,,
# 5. Inner element number.,,,,,,,,,,,,,,
# 6. Label.,,,,,,,,,,,,,,
# 7. Latin Square Group.,,,,,,,,,,,,,,
# 8. PennElementType.,,,,,,,,,,,,,,
# 9. PennElementName.,,,,,,,,,,,,,,
# 10. Parameter.,,,,,,,,,,,,,,
# 11. Value.,,,,,,,,,,,,,,
# 12. EventTime.,,,,,,,,,,,,,,
# 13. ID.,,,,,,,,,,,,,,
# 14. Comments.,,,,,,,,,,,,,,
1634581472,9e1529ca3a0de676ed4051ee0d6193c4,2,0,intro,NULL,PennController,0,_Trial_,Start,1.63458E+12,9031,NULL,,
1634581472,9e1529ca3a0de676ed4051ee0d6193c4,2,0,intro,NULL,PennController,0,_Trial_,End,1.63458E+12,9031,NULL,,
# 13. Comments.,,,,,,,,,,,,,,
1634581472,9e1529ca3a0de676ed4051ee0d6193c4,3,0,beginning,NULL,PennController,1,_Trial_,Start,1.63458E+12,NULL,,,
1634581472,9e1529ca3a0de676ed4051ee0d6193c4,3,0,beginning,NULL,PennController,1,_Trial_,End,1.63458E+12,NULL,,,
# 13. group.,,,,,,,,,,,,,,
# 14. condition.,,,,,,,,,,,,,,
# 15. item.,,,,,,,,,,,,,,
# 16. Comments.,,,,,,,,,,,,,,
1634581472,9e1529ca3a0de676ed4051ee0d6193c4,4,0,experiment,NULL,PennController,4,_Trial_,Start,1.63458E+12,D,contrast,animal,NULL
1634581472,9e1529ca3a0de676ed4051ee0d6193c4,4,0,experiment,NULL,SelectionGrid,test-phase,Selections,sub-dalmatian-1.jpg|sub-dalmatian-1.jpg;true;4257,1.63458E+12,D,contrast,animal,NULL
1634581472,9e1529ca3a0de676ed4051ee0d6193c4,4,0,experiment,NULL,PennController,4,_Trial_,End,1.63458E+12,D,contrast,animal,NULL
1634581472,9e1529ca3a0de676ed4051ee0d6193c4,5,0,experiment,NULL,PennController,5,_Trial_,Start,1.63458E+12,D,contrast,beast,NULL
1634581472,9e1529ca3a0de676ed4051ee0d6193c4,5,0,experiment,NULL,SelectionGrid,test-phase,Selections,sub-trex-2.jpg|sub-trex-2.jpg;true;5471,1.63458E+12,D,contrast,beast,NULL
1634581472,9e1529ca3a0de676ed4051ee0d6193c4,5,0,experiment,NULL,PennController,5,_Trial_,End,1.63458E+12,D,contrast,beast,NULL
1634581472,9e1529ca3a0de676ed4051ee0d6193c4,6,0,experiment,NULL,PennController,6,_Trial_,Start,1.63458E+12,D,single,electronics,NULL
1634581472,9e1529ca3a0de676ed4051ee0d6193c4,6,0,experiment,NULL,SelectionGrid,test-phase,Selections,sub-smart_phone-2.jpg|sub-smart_phone-2.jpg;true;6562,1.63458E+12,D,single,electronics,NULL
1634581472,9e1529ca3a0de676ed4051ee0d6193c4,6,0,experiment,NULL,PennController,6,_Trial_,End,1.63458E+12,D,single,electronics,NULL
1634581472,9e1529ca3a0de676ed4051ee0d6193c4,7,0,experiment,NULL,PennController,7,_Trial_,Start,1.63458E+12,D,single,Filler-Color-red,NULL
1634581472,9e1529ca3a0de676ed4051ee0d6193c4,7,0,experiment,NULL,SelectionGrid,test-phase,Selections,red-rect.jpg|red-rect.jpg;true;3862:red-rect.jpg;true;4456:red-rect.jpg;true;5083:red-rect.jpg;true;6359:red-rect.jpg;true;6944:red-rect.jpg;true;7563,1.63458E+12,D,single,Filler-Color-red,NULL
1634581472,9e1529ca3a0de676ed4051ee0d6193c4,7,0,experiment,NULL,PennController,7,_Trial_,End,1.63458E+12,D,single,Filler-Color-red,NULL
1634581472,9e1529ca3a0de676ed4051ee0d6193c4,8,0,experiment,NULL,PennController,8,_Trial_,Start,1.63458E+12,D,single,fruit,NULL
1634581472,9e1529ca3a0de676ed4051ee0d6193c4,8,0,experiment,NULL,SelectionGrid,test-phase,Selections,sub-red_apple-1.jpg|sub-red_apple-1.jpg;true;4000,1.63458E+12,D,single,fruit,NULL
1634581472,9e1529ca3a0de676ed4051ee0d6193c4,8,0,experiment,NULL,PennController,8,_Trial_,End,1.63458E+12,D,single,fruit,NULL
1634581472,9e1529ca3a0de676ed4051ee0d6193c4,9,0,experiment,NULL,PennController,9,_Trial_,Start,1.63458E+12,D,contrast,furniture,NULL
1634581472,9e1529ca3a0de676ed4051ee0d6193c4,9,0,experiment,NULL,SelectionGrid,test-phase,Selections,sub-wooden_chair-2.jpg;sub-wooden_chair-1.jpg|sub-wooden_chair-2.jpg;true;5043:sub-wooden_chair-1.jpg;true;6684,1.63458E+12,D,contrast,furniture,NULL
1634581472,9e1529ca3a0de676ed4051ee0d6193c4,9,0,experiment,NULL,PennController,9,_Trial_,End,1.63458E+12,D,contrast,furniture,NULL
1634581472,9e1529ca3a0de676ed4051ee0d6193c4,10,0,experiment,NULL,PennController,10,_Trial_,Start,1.63458E+12,D,contrast,light,NULL
1634581472,9e1529ca3a0de676ed4051ee0d6193c4,10,0,experiment,NULL,SelectionGrid,test-phase,Selections,sub-gooseneck_lamp-2.jpg;sub-gooseneck_lamp-1.jpg|sub-gooseneck_lamp-2.jpg;true;3833:sub-gooseneck_lamp-1.jpg;true;4681,1.63458E+12,D,contrast,light,NULL
1634581472,9e1529ca3a0de676ed4051ee0d6193c4,10,0,experiment,NULL,PennController,10,_Trial_,End,1.63458E+12,D,contrast,light,NULL
1634581472,9e1529ca3a0de676ed4051ee0d6193c4,11,0,experiment,NULL,PennController,11,_Trial_,Start,1.63458E+12,D,single,Filler-Shape-triangle,NULL
1634581472,9e1529ca3a0de676ed4051ee0d6193c4,11,0,experiment,NULL,SelectionGrid,test-phase,Selections,triangle-5.jpg;triangle-2.jpg;triangle-4.jpg;triangle-1.jpg;triangle-3.jpg|triangle-5.jpg;true;2220:triangle-2.jpg;true;3287:triangle-4.jpg;true;3490:triangle-1.jpg;true;4385:triangle-3.jpg;true;4888,1.63458E+12,D,single,Filler-Shape-triangle,NULL
1634581472,9e1529ca3a0de676ed4051ee0d6193c4,11,0,experiment,NULL,PennController,11,_Trial_,End,1.63458E+12,D,single,Filler-Shape-triangle,NULL
1634581472,9e1529ca3a0de676ed4051ee0d6193c4,12,0,experiment,NULL,PennController,12,_Trial_,Start,1.63458E+12,D,single,vegetable,NULL
1634581472,9e1529ca3a0de676ed4051ee0d6193c4,12,0,experiment,NULL,SelectionGrid,test-phase,Selections,sub-green_pepper-1.jpg;sub-green_pepper-2.jpg|sub-green_pepper-1.jpg;true;1460:sub-green_pepper-2.jpg;true;2925,1.63458E+12,D,single,vegetable,NULL
1634581472,9e1529ca3a0de676ed4051ee0d6193c4,12,0,experiment,NULL,PennController,12,_Trial_,End,1.63458E+12,D,single,vegetable,NULL
1634581472,9e1529ca3a0de676ed4051ee0d6193c4,13,0,experiment,NULL,PennController,13,_Trial_,Start,1.63458E+12,D,single,vehicle,NULL
1634581472,9e1529ca3a0de676ed4051ee0d6193c4,13,0,experiment,NULL,SelectionGrid,test-phase,Selections,sub-racecar-1.jpg|sub-racecar-1.jpg;true;4540,1.63458E+12,D,single,vehicle,NULL
1634581472,9e1529ca3a0de676ed4051ee0d6193c4,13,0,experiment,NULL,PennController,13,_Trial_,End,1.63458E+12,D,single,vehicle,NULL
# 13. window_size.,,,,,,,,,,,,,,
# 14. Comments.,,,,,,,,,,,,,,
1634581472,9e1529ca3a0de676ed4051ee0d6193c4,14,0,end,NULL,PennController,2,_Trial_,Start,1.63458E+12,1440x796,NULL,,
1634581472,9e1529ca3a0de676ed4051ee0d6193c4,14,0,end,NULL,PennController,2,_Trial_,End,1.63458E+12,1440x796,NULL,,
#,,,,,,,,,,,,,,
# Results on Mon, 18 Oct 2021 18:27:24 GMT,,,,,,,,,,,,,
# USER AGENT: Mozilla/5.0 (Macintosh; Intel Mac OS X 10_13_6) AppleWebKit/537.36 (KHTML, like Gecko) Chrome/94.0.4606.81 Safari/537.36,,,,,,,,,,,,,
# Design number was non-random = 24,,,,,,,,,,,,,,
#,,,,,,,,,,,,,,
# Columns below this comment are as follows:,,,,,,,,,,,,,,
# 1. Results reception time.,,,,,,,,,,,,,,
# 2. MD5 hash of participant's IP address.,,,,,,,,,,,,,,
# 3. Controller name.,,,,,,,,,,,,,,
# 4. Order number of item.,,,,,,,,,,,,,,
# 5. Inner element number.,,,,,,,,,,,,,,
# 6. Label.,,,,,,,,,,,,,,
# 7. Latin Square Group.,,,,,,,,,,,,,,
# 8. PennElementType.,,,,,,,,,,,,,,
# 9. PennElementName.,,,,,,,,,,,,,,
# 10. Parameter.,,,,,,,,,,,,,,
# 11. Value.,,,,,,,,,,,,,,
# 12. EventTime.,,,,,,,,,,,,,,
# 13. ID.,,,,,,,,,,,,,,
# 14. Comments.,,,,,,,,,,,,,,
1634581644,a384c99e731f88ae0213bf7ce69ffbf3,2,0,intro,NULL,PennController,0,_Trial_,Start,1.63458E+12,7050,NULL,,
1634581644,a384c99e731f88ae0213bf7ce69ffbf3,2,0,intro,NULL,PennController,0,_Trial_,End,1.63458E+12,7050,NULL,,
# 13. Comments.,,,,,,,,,,,,,,
1634581644,a384c99e731f88ae0213bf7ce69ffbf3,3,0,beginning,NULL,PennController,1,_Trial_,Start,1.63458E+12,NULL,,,
1634581644,a384c99e731f88ae0213bf7ce69ffbf3,3,0,beginning,NULL,PennController,1,_Trial_,End,1.63458E+12,NULL,,,
# 13. group.,,,,,,,,,,,,,,
# 14. condition.,,,,,,,,,,,,,,
# 15. item.,,,,,,,,,,,,,,
# 16. Comments.,,,,,,,,,,,,,,
1634581644,a384c99e731f88ae0213bf7ce69ffbf3,4,0,experiment,NULL,PennController,4,_Trial_,Start,1.63458E+12,A,single,animal,NULL
1634581644,a384c99e731f88ae0213bf7ce69ffbf3,4,0,experiment,NULL,SelectionGrid,test-phase,Selections,sub-dalmatian-1.jpg;sub-dalmatian-2.jpg|sub-dalmatian-1.jpg;true;5039:sub-dalmatian-2.jpg;true;5825,1.63458E+12,A,single,animal,NULL
1634581644,a384c99e731f88ae0213bf7ce69ffbf3,4,0,experiment,NULL,PennController,4,_Trial_,End,1.63458E+12,A,single,animal,NULL
1634581644,a384c99e731f88ae0213bf7ce69ffbf3,5,0,experiment,NULL,PennController,5,_Trial_,Start,1.63458E+12,A,contrast,beast,NULL
1634581644,a384c99e731f88ae0213bf7ce69ffbf3,5,0,experiment,NULL,SelectionGrid,test-phase,Selections,sub-trex-2.jpg;sub-trex-1.jpg|sub-trex-2.jpg;true;2797:sub-trex-1.jpg;true;3965,1.63458E+12,A,contrast,beast,NULL
1634581644,a384c99e731f88ae0213bf7ce69ffbf3,5,0,experiment,NULL,PennController,5,_Trial_,End,1.63458E+12,A,contrast,beast,NULL
1634581644,a384c99e731f88ae0213bf7ce69ffbf3,6,0,experiment,NULL,PennController,6,_Trial_,Start,1.63458E+12,A,single,electronics,NULL
1634581644,a384c99e731f88ae0213bf7ce69ffbf3,6,0,experiment,NULL,SelectionGrid,test-phase,Selections,sub-smart_phone-2.jpg;sub-smart_phone-1.jpg|sub-smart_phone-2.jpg;true;2380:sub-smart_phone-1.jpg;true;3216,1.63458E+12,A,single,electronics,NULL
1634581644,a384c99e731f88ae0213bf7ce69ffbf3,6,0,experiment,NULL,PennController,6,_Trial_,End,1.63458E+12,A,single,electronics,NULL
1634581644,a384c99e731f88ae0213bf7ce69ffbf3,7,0,experiment,NULL,PennController,7,_Trial_,Start,1.63458E+12,A,single,Filler-Color-red,NULL
1634581644,a384c99e731f88ae0213bf7ce69ffbf3,7,0,experiment,NULL,SelectionGrid,test-phase,Selections,red-rect.jpg;blue-rect.jpg;green-rect.jpg|red-rect.jpg;true;2422:red-rect.jpg;true;2773:red-rect.jpg;true;3226:red-rect.jpg;true;3789:red-rect.jpg;true;4322:red-rect.jpg;true;4696:blue-rect.jpg;true;11140:green-rect.jpg;true;11536:green-rect.jpg;true;11887:green-rect.jpg;true;12451:green-rect.jpg;true;12857:green-rect.jpg;true;13191:blue-rect.jpg;true;13700:blue-rect.jpg;true;14088:green-rect.jpg;true;14542:blue-rect.jpg;true;14892:blue-rect.jpg;true;15281:blue-rect.jpg;true;15655,1.63458E+12,A,single,Filler-Color-red,NULL
1634581644,a384c99e731f88ae0213bf7ce69ffbf3,7,0,experiment,NULL,PennController,7,_Trial_,End,1.63458E+12,A,single,Filler-Color-red,NULL
1634581644,a384c99e731f88ae0213bf7ce69ffbf3,8,0,experiment,NULL,PennController,8,_Trial_,Start,1.63458E+12,A,contrast,fruit,NULL
1634581644,a384c99e731f88ae0213bf7ce69ffbf3,8,0,experiment,NULL,SelectionGrid,test-phase,Selections,sub-red_apple-1.jpg;sub-red_apple-2.jpg|sub-red_apple-1.jpg;true;1449:sub-red_apple-2.jpg;true;2062,1.63458E+12,A,contrast,fruit,NULL
1634581644,a384c99e731f88ae0213bf7ce69ffbf3,8,0,experiment,NULL,PennController,8,_Trial_,End,1.63458E+12,A,contrast,fruit,NULL
1634581644,a384c99e731f88ae0213bf7ce69ffbf3,9,0,experiment,NULL,PennController,9,_Trial_,Start,1.63458E+12,A,single,furniture,NULL
1634581644,a384c99e731f88ae0213bf7ce69ffbf3,9,0,experiment,NULL,SelectionGrid,test-phase,Selections,sub-wooden_chair-2.jpg;basic-chair-3.jpg;contrast-office_chair-1.jpg;basic-chair-2.jpg;basic-chair-1.jpg;sub-wooden_chair-1.jpg;contrast-office_chair-2.jpg|sub-wooden_chair-2.jpg;true;1790:basic-chair-3.jpg;true;2672:contrast-office_chair-1.jpg;true;3387:basic-chair-2.jpg;true;4365:basic-chair-1.jpg;true;4730:sub-wooden_chair-1.jpg;true;5622:contrast-office_chair-2.jpg;true;6256,1.63458E+12,A,single,furniture,NULL
1634581644,a384c99e731f88ae0213bf7ce69ffbf3,9,0,experiment,NULL,PennController,9,_Trial_,End,1.63458E+12,A,single,furniture,NULL
1634581644,a384c99e731f88ae0213bf7ce69ffbf3,10,0,experiment,NULL,PennController,10,_Trial_,Start,1.63458E+12,A,contrast,light,NULL
1634581644,a384c99e731f88ae0213bf7ce69ffbf3,10,0,experiment,NULL,SelectionGrid,test-phase,Selections,sub-gooseneck_lamp-1.jpg;sub-gooseneck_lamp-2.jpg|sub-gooseneck_lamp-1.jpg;true;2298:sub-gooseneck_lamp-2.jpg;true;3116,1.63458E+12,A,contrast,light,NULL
1634581644,a384c99e731f88ae0213bf7ce69ffbf3,10,0,experiment,NULL,PennController,10,_Trial_,End,1.63458E+12,A,contrast,light,NULL
1634581644,a384c99e731f88ae0213bf7ce69ffbf3,11,0,experiment,NULL,PennController,11,_Trial_,Start,1.63458E+12,A,single,Filler-Shape-triangle,NULL
1634581644,a384c99e731f88ae0213bf7ce69ffbf3,11,0,experiment,NULL,SelectionGrid,test-phase,Selections,triangle-4.jpg;triangle-2.jpg;triangle-3.jpg;triangle-5.jpg;triangle-1.jpg|triangle-4.jpg;true;2023:triangle-2.jpg;true;2404:triangle-3.jpg;true;2802:triangle-5.jpg;true;3420:triangle-1.jpg;true;4040,1.63458E+12,A,single,Filler-Shape-triangle,NULL
1634581644,a384c99e731f88ae0213bf7ce69ffbf3,11,0,experiment,NULL,PennController,11,_Trial_,End,1.63458E+12,A,single,Filler-Shape-triangle,NULL
1634581644,a384c99e731f88ae0213bf7ce69ffbf3,12,0,experiment,NULL,PennController,12,_Trial_,Start,1.63458E+12,A,single,vegetable,NULL
1634581644,a384c99e731f88ae0213bf7ce69ffbf3,12,0,experiment,NULL,SelectionGrid,test-phase,Selections,sub-green_pepper-1.jpg|sub-green_pepper-1.jpg;true;2298,1.63458E+12,A,single,vegetable,NULL
1634581644,a384c99e731f88ae0213bf7ce69ffbf3,12,0,experiment,NULL,PennController,12,_Trial_,End,1.63458E+12,A,single,vegetable,NULL
1634581644,a384c99e731f88ae0213bf7ce69ffbf3,13,0,experiment,NULL,PennController,13,_Trial_,Start,1.63458E+12,A,contrast,vehicle,NULL
1634581644,a384c99e731f88ae0213bf7ce69ffbf3,13,0,experiment,NULL,SelectionGrid,test-phase,Selections,sup-vehicle-2.jpg;sup-vehicle-3.jpg|sup-vehicle-2.jpg;true;5529:sup-vehicle-3.jpg;true;6046,1.63458E+12,A,contrast,vehicle,NULL
1634581644,a384c99e731f88ae0213bf7ce69ffbf3,13,0,experiment,NULL,PennController,13,_Trial_,End,1.63458E+12,A,contrast,vehicle,NULL
# 13. window_size.,,,,,,,,,,,,,,
# 14. Comments.,,,,,,,,,,,,,,
1634581644,a384c99e731f88ae0213bf7ce69ffbf3,14,0,end,NULL,PennController,2,_Trial_,Start,1.63458E+12,1309x717,NULL,,
1634581644,a384c99e731f88ae0213bf7ce69ffbf3,14,0,end,NULL,PennController,2,_Trial_,End,1.63458E+12,1309x717,NULL,,
#,,,,,,,,,,,,,,
# Results on Mon, 18 Oct 2021 18:49:19 GMT,,,,,,,,,,,,,
# USER AGENT: Mozilla/5.0 (Macintosh; Intel Mac OS X 10_15_7) AppleWebKit/605.1.15 (KHTML, like Gecko) Version/14.1.2 Safari/605.1.15,,,,,,,,,,,,,
# Design number was non-random = 26,,,,,,,,,,,,,,
#,,,,,,,,,,,,,,
# Columns below this comment are as follows:,,,,,,,,,,,,,,
# 1. Results reception time.,,,,,,,,,,,,,,
# 2. MD5 hash of participant's IP address.,,,,,,,,,,,,,,
# 3. Controller name.,,,,,,,,,,,,,,
# 4. Order number of item.,,,,,,,,,,,,,,
# 5. Inner element number.,,,,,,,,,,,,,,
# 6. Label.,,,,,,,,,,,,,,
# 7. Latin Square Group.,,,,,,,,,,,,,,
# 8. PennElementType.,,,,,,,,,,,,,,
# 9. PennElementName.,,,,,,,,,,,,,,
# 10. Parameter.,,,,,,,,,,,,,,
# 11. Value.,,,,,,,,,,,,,,
# 12. EventTime.,,,,,,,,,,,,,,
# 13. ID.,,,,,,,,,,,,,,
# 14. Comments.,,,,,,,,,,,,,,
1634582959,a9b43032ad704405350ab0760542d64f,2,0,intro,NULL,PennController,0,_Trial_,Start,1.63458E+12,9588,NULL,,
1634582959,a9b43032ad704405350ab0760542d64f,2,0,intro,NULL,PennController,0,_Trial_,End,1.63458E+12,9588,NULL,,
# 13. Comments.,,,,,,,,,,,,,,
1634582959,a9b43032ad704405350ab0760542d64f,3,0,beginning,NULL,PennController,1,_Trial_,Start,1.63458E+12,NULL,,,
1634582959,a9b43032ad704405350ab0760542d64f,3,0,beginning,NULL,PennController,1,_Trial_,End,1.63458E+12,NULL,,,
# 13. group.,,,,,,,,,,,,,,
# 14. condition.,,,,,,,,,,,,,,
# 15. item.,,,,,,,,,,,,,,
# 16. Comments.,,,,,,,,,,,,,,
1634582959,a9b43032ad704405350ab0760542d64f,4,0,experiment,NULL,PennController,4,_Trial_,Start,1.63458E+12,C,single,animal,NULL
1634582959,a9b43032ad704405350ab0760542d64f,4,0,experiment,NULL,SelectionGrid,test-phase,Selections,sub-dalmatian-1.jpg;sub-dalmatian-2.jpg|sub-dalmatian-1.jpg;true;11915:sub-dalmatian-2.jpg;true;12381,1.63458E+12,C,single,animal,NULL
1634582959,a9b43032ad704405350ab0760542d64f,4,0,experiment,NULL,PennController,4,_Trial_,End,1.63458E+12,C,single,animal,NULL
1634582959,a9b43032ad704405350ab0760542d64f,5,0,experiment,NULL,PennController,5,_Trial_,Start,1.63458E+12,C,single,beast,NULL
1634582959,a9b43032ad704405350ab0760542d64f,5,0,experiment,NULL,SelectionGrid,test-phase,Selections,basic-dinosaur-3.jpg;contrast-triceratops-1.jpg;sub-trex-1.jpg;sub-trex-2.jpg;basic-dinosaur-1.jpg;contrast-triceratops-2.jpg;basic-dinosaur-2.jpg|basic-dinosaur-3.jpg;true;1395:contrast-triceratops-1.jpg;true;2109:sub-trex-1.jpg;true;2816:sub-trex-2.jpg;true;3346:basic-dinosaur-1.jpg;true;3761:contrast-triceratops-2.jpg;true;4436:basic-dinosaur-2.jpg;true;5640,1.63458E+12,C,single,beast,NULL
1634582959,a9b43032ad704405350ab0760542d64f,5,0,experiment,NULL,PennController,5,_Trial_,End,1.63458E+12,C,single,beast,NULL
1634582959,a9b43032ad704405350ab0760542d64f,6,0,experiment,NULL,PennController,6,_Trial_,Start,1.63458E+12,C,contrast,electronics,NULL
1634582959,a9b43032ad704405350ab0760542d64f,6,0,experiment,NULL,SelectionGrid,test-phase,Selections,sub-smart_phone-2.jpg;sub-smart_phone-1.jpg|sub-smart_phone-2.jpg;true;2965:sub-smart_phone-1.jpg;true;7018,1.63458E+12,C,contrast,electronics,NULL
1634582959,a9b43032ad704405350ab0760542d64f,6,0,experiment,NULL,PennController,6,_Trial_,End,1.63458E+12,C,contrast,electronics,NULL
1634582959,a9b43032ad704405350ab0760542d64f,7,0,experiment,NULL,PennController,7,_Trial_,Start,1.63458E+12,C,single,Filler-Color-red,NULL
1634582959,a9b43032ad704405350ab0760542d64f,7,0,experiment,NULL,SelectionGrid,test-phase,Selections,red-rect.jpg|red-rect.jpg;true;697:red-rect.jpg;true;991:red-rect.jpg;true;1448:red-rect.jpg;true;2162:red-rect.jpg;true;2877:red-rect.jpg;true;3158,1.63458E+12,C,single,Filler-Color-red,NULL
1634582959,a9b43032ad704405350ab0760542d64f,7,0,experiment,NULL,PennController,7,_Trial_,End,1.63458E+12,C,single,Filler-Color-red,NULL
1634582959,a9b43032ad704405350ab0760542d64f,8,0,experiment,NULL,PennController,8,_Trial_,Start,1.63458E+12,C,contrast,fruit,NULL
1634582959,a9b43032ad704405350ab0760542d64f,8,0,experiment,NULL,SelectionGrid,test-phase,Selections,sub-red_apple-2.jpg;sub-red_apple-1.jpg|sub-red_apple-2.jpg;true;2651:sub-red_apple-1.jpg;true;3315,1.63458E+12,C,contrast,fruit,NULL
1634582959,a9b43032ad704405350ab0760542d64f,8,0,experiment,NULL,PennController,8,_Trial_,End,1.63458E+12,C,contrast,fruit,NULL
1634582959,a9b43032ad704405350ab0760542d64f,9,0,experiment,NULL,PennController,9,_Trial_,Start,1.63458E+12,C,single,furniture,NULL
1634582959,a9b43032ad704405350ab0760542d64f,9,0,experiment,NULL,SelectionGrid,test-phase,Selections,sub-wooden_chair-1.jpg;sub-wooden_chair-2.jpg|sub-wooden_chair-1.jpg;true;1503:sub-wooden_chair-2.jpg;true;2033,1.63458E+12,C,single,furniture,NULL
1634582959,a9b43032ad704405350ab0760542d64f,9,0,experiment,NULL,PennController,9,_Trial_,End,1.63458E+12,C,single,furniture,NULL
1634582959,a9b43032ad704405350ab0760542d64f,10,0,experiment,NULL,PennController,10,_Trial_,Start,1.63458E+12,C,single,light,NULL
1634582959,a9b43032ad704405350ab0760542d64f,10,0,experiment,NULL,SelectionGrid,test-phase,Selections,contrast-desk_lamp-1.jpg;sub-gooseneck_lamp-2.jpg;sub-gooseneck_lamp-1.jpg;contrast-desk_lamp-2.jpg|contrast-desk_lamp-1.jpg;true;1287:sub-gooseneck_lamp-2.jpg;true;2491:sub-gooseneck_lamp-1.jpg;true;3390:contrast-desk_lamp-2.jpg;true;4329,1.63458E+12,C,single,light,NULL
1634582959,a9b43032ad704405350ab0760542d64f,10,0,experiment,NULL,PennController,10,_Trial_,End,1.63458E+12,C,single,light,NULL
1634582959,a9b43032ad704405350ab0760542d64f,11,0,experiment,NULL,PennController,11,_Trial_,Start,1.63458E+12,C,single,Filler-Shape-triangle,NULL
1634582959,a9b43032ad704405350ab0760542d64f,11,0,experiment,NULL,SelectionGrid,test-phase,Selections,triangle-2.jpg;triangle-3.jpg;triangle-5.jpg;triangle-4.jpg;triangle-1.jpg|triangle-2.jpg;true;1075:triangle-3.jpg;true;1435:triangle-5.jpg;true;1870:triangle-4.jpg;true;2422:triangle-1.jpg;true;3144,1.63458E+12,C,single,Filler-Shape-triangle,NULL
1634582959,a9b43032ad704405350ab0760542d64f,11,0,experiment,NULL,PennController,11,_Trial_,End,1.63458E+12,C,single,Filler-Shape-triangle,NULL
1634582959,a9b43032ad704405350ab0760542d64f,12,0,experiment,NULL,PennController,12,_Trial_,Start,1.63458E+12,C,contrast,vegetable,NULL
1634582959,a9b43032ad704405350ab0760542d64f,12,0,experiment,NULL,SelectionGrid,test-phase,Selections,sub-green_pepper-1.jpg;sub-green_pepper-2.jpg|sub-green_pepper-1.jpg;true;2091:sub-green_pepper-2.jpg;true;3535,1.63458E+12,C,contrast,vegetable,NULL
1634582959,a9b43032ad704405350ab0760542d64f,12,0,experiment,NULL,PennController,12,_Trial_,End,1.63458E+12,C,contrast,vegetable,NULL
1634582959,a9b43032ad704405350ab0760542d64f,13,0,experiment,NULL,PennController,13,_Trial_,Start,1.63458E+12,C,contrast,vehicle,NULL
1634582959,a9b43032ad704405350ab0760542d64f,13,0,experiment,NULL,SelectionGrid,test-phase,Selections,basic-car-2.jpg;sub-racecar-1.jpg;basic-car-3.jpg;basic-car-1.jpg;sub-racecar-2.jpg|basic-car-2.jpg;true;3139:sub-racecar-1.jpg;true;3709:basic-car-3.jpg;true;4929:basic-car-1.jpg;true;7216:sub-racecar-2.jpg;true;7922,1.63458E+12,C,contrast,vehicle,NULL
1634582959,a9b43032ad704405350ab0760542d64f,13,0,experiment,NULL,PennController,13,_Trial_,End,1.63458E+12,C,contrast,vehicle,NULL
# 13. window_size.,,,,,,,,,,,,,,
# 14. Comments.,,,,,,,,,,,,,,
1634582959,a9b43032ad704405350ab0760542d64f,14,0,end,NULL,PennController,2,_Trial_,Start,1.63458E+12,1440x820,NULL,,
1634582959,a9b43032ad704405350ab0760542d64f,14,0,end,NULL,PennController,2,_Trial_,End,1.63458E+12,1440x820,NULL,,
#,,,,,,,,,,,,,,
# Results on Mon, 18 Oct 2021 18:54:57 GMT,,,,,,,,,,,,,
# USER AGENT: Mozilla/5.0 (Macintosh; Intel Mac OS X 10_15_3) AppleWebKit/537.36 (KHTML, like Gecko) Chrome/93.0.4577.63 Safari/537.36,,,,,,,,,,,,,
# Design number was non-random = 27,,,,,,,,,,,,,,
#,,,,,,,,,,,,,,
# Columns below this comment are as follows:,,,,,,,,,,,,,,
# 1. Results reception time.,,,,,,,,,,,,,,
# 2. MD5 hash of participant's IP address.,,,,,,,,,,,,,,
# 3. Controller name.,,,,,,,,,,,,,,
# 4. Order number of item.,,,,,,,,,,,,,,
# 5. Inner element number.,,,,,,,,,,,,,,
# 6. Label.,,,,,,,,,,,,,,
# 7. Latin Square Group.,,,,,,,,,,,,,,
# 8. PennElementType.,,,,,,,,,,,,,,
# 9. PennElementName.,,,,,,,,,,,,,,
# 10. Parameter.,,,,,,,,,,,,,,
# 11. Value.,,,,,,,,,,,,,,
# 12. EventTime.,,,,,,,,,,,,,,
# 13. ID.,,,,,,,,,,,,,,
# 14. Comments.,,,,,,,,,,,,,,
1634583297,d9fe89579bae59b225c0714469acdade,2,0,intro,NULL,PennController,0,_Trial_,Start,1.63458E+12,8979,NULL,,
1634583297,d9fe89579bae59b225c0714469acdade,2,0,intro,NULL,PennController,0,_Trial_,End,1.63458E+12,8979,NULL,,
# 13. Comments.,,,,,,,,,,,,,,
1634583297,d9fe89579bae59b225c0714469acdade,3,0,beginning,NULL,PennController,1,_Trial_,Start,1.63458E+12,NULL,,,
1634583297,d9fe89579bae59b225c0714469acdade,3,0,beginning,NULL,PennController,1,_Trial_,End,1.63458E+12,NULL,,,
# 13. group.,,,,,,,,,,,,,,
# 14. condition.,,,,,,,,,,,,,,
# 15. item.,,,,,,,,,,,,,,
# 16. Comments.,,,,,,,,,,,,,,
1634583297,d9fe89579bae59b225c0714469acdade,4,0,experiment,NULL,PennController,4,_Trial_,Start,1.63458E+12,D,contrast,animal,NULL
1634583297,d9fe89579bae59b225c0714469acdade,4,0,experiment,NULL,SelectionGrid,test-phase,Selections,basic-dog-1.jpg;sub-dalmatian-1.jpg;sub-dalmatian-2.jpg|basic-dog-1.jpg;true;3950:sub-dalmatian-1.jpg;true;4988:sub-dalmatian-2.jpg;true;6556,1.63458E+12,D,contrast,animal,NULL
1634583297,d9fe89579bae59b225c0714469acdade,4,0,experiment,NULL,PennController,4,_Trial_,End,1.63458E+12,D,contrast,animal,NULL
1634583297,d9fe89579bae59b225c0714469acdade,5,0,experiment,NULL,PennController,5,_Trial_,Start,1.63458E+12,D,contrast,beast,NULL
1634583297,d9fe89579bae59b225c0714469acdade,5,0,experiment,NULL,SelectionGrid,test-phase,Selections,sub-trex-2.jpg;basic-dinosaur-2.jpg;sub-trex-1.jpg|sub-trex-2.jpg;true;4723:basic-dinosaur-2.jpg;true;5342:sub-trex-1.jpg;true;7176,1.63458E+12,D,contrast,beast,NULL
1634583297,d9fe89579bae59b225c0714469acdade,5,0,experiment,NULL,PennController,5,_Trial_,End,1.63458E+12,D,contrast,beast,NULL
1634583297,d9fe89579bae59b225c0714469acdade,6,0,experiment,NULL,PennController,6,_Trial_,Start,1.63458E+12,D,single,electronics,NULL
1634583297,d9fe89579bae59b225c0714469acdade,6,0,experiment,NULL,SelectionGrid,test-phase,Selections,sub-smart_phone-2.jpg;sub-smart_phone-1.jpg;contrast-flip_phone-1.jpg;contrast-flip_phone-2.jpg;basic-phone-2.jpg;basic-phone-3.jpg|sub-smart_phone-2.jpg;true;3024:sub-smart_phone-1.jpg;true;3835:contrast-flip_phone-1.jpg;true;5333:contrast-flip_phone-2.jpg;true;5860:basic-phone-2.jpg;true;6442:basic-phone-3.jpg;true;7119,1.63458E+12,D,single,electronics,NULL
1634583297,d9fe89579bae59b225c0714469acdade,6,0,experiment,NULL,PennController,6,_Trial_,End,1.63458E+12,D,single,electronics,NULL
1634583297,d9fe89579bae59b225c0714469acdade,7,0,experiment,NULL,PennController,7,_Trial_,Start,1.63458E+12,D,single,Filler-Color-red,NULL
1634583297,d9fe89579bae59b225c0714469acdade,7,0,experiment,NULL,SelectionGrid,test-phase,Selections,red-rect.jpg|red-rect.jpg;true;1650:red-rect.jpg;true;2152:red-rect.jpg;true;2728:red-rect.jpg;true;3763:red-rect.jpg;true;4222:red-rect.jpg;true;5076,1.63458E+12,D,single,Filler-Color-red,NULL
1634583297,d9fe89579bae59b225c0714469acdade,7,0,experiment,NULL,PennController,7,_Trial_,End,1.63458E+12,D,single,Filler-Color-red,NULL
1634583297,d9fe89579bae59b225c0714469acdade,8,0,experiment,NULL,PennController,8,_Trial_,Start,1.63458E+12,D,single,fruit,NULL
1634583297,d9fe89579bae59b225c0714469acdade,8,0,experiment,NULL,SelectionGrid,test-phase,Selections,sub-red_apple-1.jpg;sub-red_apple-2.jpg;basic-apple-1.jpg;contrast-green_apple-2.jpg;contrast-green_apple-1.jpg;basic-apple-2.jpg|sub-red_apple-1.jpg;true;2477:sub-red_apple-2.jpg;true;3072:basic-apple-1.jpg;true;5227:contrast-green_apple-2.jpg;true;6720:contrast-green_apple-1.jpg;true;7871:basic-apple-2.jpg;true;12801,1.63458E+12,D,single,fruit,NULL
1634583297,d9fe89579bae59b225c0714469acdade,8,0,experiment,NULL,PennController,8,_Trial_,End,1.63458E+12,D,single,fruit,NULL
1634583297,d9fe89579bae59b225c0714469acdade,9,0,experiment,NULL,PennController,9,_Trial_,Start,1.63458E+12,D,contrast,furniture,NULL
1634583297,d9fe89579bae59b225c0714469acdade,9,0,experiment,NULL,SelectionGrid,test-phase,Selections,sub-wooden_chair-2.jpg;basic-chair-1.jpg;basic-chair-3.jpg;sub-wooden_chair-1.jpg|sub-wooden_chair-2.jpg;true;2914:basic-chair-1.jpg;true;3841:basic-chair-3.jpg;true;4326:sub-wooden_chair-1.jpg;true;5288,1.63458E+12,D,contrast,furniture,NULL
1634583297,d9fe89579bae59b225c0714469acdade,9,0,experiment,NULL,PennController,9,_Trial_,End,1.63458E+12,D,contrast,furniture,NULL
1634583297,d9fe89579bae59b225c0714469acdade,10,0,experiment,NULL,PennController,10,_Trial_,Start,1.63458E+12,D,contrast,light,NULL
1634583297,d9fe89579bae59b225c0714469acdade,10,0,experiment,NULL,SelectionGrid,test-phase,Selections,sub-gooseneck_lamp-2.jpg;sub-gooseneck_lamp-1.jpg|sub-gooseneck_lamp-2.jpg;true;2597:sub-gooseneck_lamp-1.jpg;true;3321,1.63458E+12,D,contrast,light,NULL
1634583297,d9fe89579bae59b225c0714469acdade,10,0,experiment,NULL,PennController,10,_Trial_,End,1.63458E+12,D,contrast,light,NULL
1634583297,d9fe89579bae59b225c0714469acdade,11,0,experiment,NULL,PennController,11,_Trial_,Start,1.63458E+12,D,single,Filler-Shape-triangle,NULL
1634583297,d9fe89579bae59b225c0714469acdade,11,0,experiment,NULL,SelectionGrid,test-phase,Selections,triangle-5.jpg;triangle-3.jpg;triangle-2.jpg;triangle-4.jpg;triangle-1.jpg|triangle-5.jpg;true;2384:triangle-3.jpg;true;2917:triangle-2.jpg;true;3407:triangle-4.jpg;true;4311:triangle-1.jpg;true;4939,1.63458E+12,D,single,Filler-Shape-triangle,NULL
1634583297,d9fe89579bae59b225c0714469acdade,11,0,experiment,NULL,PennController,11,_Trial_,End,1.63458E+12,D,single,Filler-Shape-triangle,NULL
1634583297,d9fe89579bae59b225c0714469acdade,12,0,experiment,NULL,PennController,12,_Trial_,Start,1.63458E+12,D,single,vegetable,NULL
1634583297,d9fe89579bae59b225c0714469acdade,12,0,experiment,NULL,SelectionGrid,test-phase,Selections,sub-green_pepper-1.jpg;sub-green_pepper-2.jpg;basic-pepper-2.jpg;basic-pepper-3.jpg;contrast-red_pepper-2.jpg|sub-green_pepper-1.jpg;true;1714:sub-green_pepper-2.jpg;true;2765:basic-pepper-2.jpg;true;3405:basic-pepper-3.jpg;true;3996:contrast-red_pepper-2.jpg;true;4902,1.63458E+12,D,single,vegetable,NULL
1634583297,d9fe89579bae59b225c0714469acdade,12,0,experiment,NULL,PennController,12,_Trial_,End,1.63458E+12,D,single,vegetable,NULL
1634583297,d9fe89579bae59b225c0714469acdade,13,0,experiment,NULL,PennController,13,_Trial_,Start,1.63458E+12,D,single,vehicle,NULL
1634583297,d9fe89579bae59b225c0714469acdade,13,0,experiment,NULL,SelectionGrid,test-phase,Selections,contrast-van-2.jpg;contrast-van-1.jpg;basic-car-2.jpg;sub-racecar-2.jpg;basic-car-3.jpg;basic-car-1.jpg;sub-racecar-1.jpg|contrast-van-2.jpg;true;3184:contrast-van-1.jpg;true;3685:basic-car-2.jpg;true;4402:sub-racecar-2.jpg;true;5916:basic-car-3.jpg;true;6426:basic-car-1.jpg;true;6914:sub-racecar-1.jpg;true;7601,1.63458E+12,D,single,vehicle,NULL
1634583297,d9fe89579bae59b225c0714469acdade,13,0,experiment,NULL,PennController,13,_Trial_,End,1.63458E+12,D,single,vehicle,NULL
# 13. window_size.,,,,,,,,,,,,,,
# 14. Comments.,,,,,,,,,,,,,,
1634583297,d9fe89579bae59b225c0714469acdade,14,0,end,NULL,PennController,2,_Trial_,Start,1.63458E+12,1440x789,NULL,,
1634583297,d9fe89579bae59b225c0714469acdade,14,0,end,NULL,PennController,2,_Trial_,End,1.63458E+12,1440x789,NULL,,
#,,,,,,,,,,,,,,
# Results on Mon, 18 Oct 2021 18:57:01 GMT,,,,,,,,,,,,,
# USER AGENT: Mozilla/5.0 (Macintosh; Intel Mac OS X 10_15_7) AppleWebKit/537.36 (KHTML, like Gecko) Chrome/93.0.4577.63 Safari/537.36,,,,,,,,,,,,,
# Design number was non-random = 28,,,,,,,,,,,,,,
#,,,,,,,,,,,,,,
# Columns below this comment are as follows:,,,,,,,,,,,,,,
# 1. Results reception time.,,,,,,,,,,,,,,
# 2. MD5 hash of participant's IP address.,,,,,,,,,,,,,,
# 3. Controller name.,,,,,,,,,,,,,,
# 4. Order number of item.,,,,,,,,,,,,,,
# 5. Inner element number.,,,,,,,,,,,,,,
# 6. Label.,,,,,,,,,,,,,,
# 7. Latin Square Group.,,,,,,,,,,,,,,
# 8. PennElementType.,,,,,,,,,,,,,,
# 9. PennElementName.,,,,,,,,,,,,,,
# 10. Parameter.,,,,,,,,,,,,,,
# 11. Value.,,,,,,,,,,,,,,
# 12. EventTime.,,,,,,,,,,,,,,
# 13. ID.,,,,,,,,,,,,,,
# 14. Comments.,,,,,,,,,,,,,,
1634583421,4364708ef153b55c228707f018ea3eea,2,0,intro,NULL,PennController,0,_Trial_,Start,1.63458E+12,9739,NULL,,
1634583421,4364708ef153b55c228707f018ea3eea,2,0,intro,NULL,PennController,0,_Trial_,End,1.63458E+12,9739,NULL,,
# 13. Comments.,,,,,,,,,,,,,,
1634583421,4364708ef153b55c228707f018ea3eea,3,0,beginning,NULL,PennController,1,_Trial_,Start,1.63458E+12,NULL,,,
